[Header]
Data File Name	C:\GCMSsolution\Data\KOM\Huile essentielle\Essential oill.qgm1.QGD
Output Date	01/07/2008
Output Time	03:14:09

[MS Chromatogram]
m/z	1-1 TIC
Event Time(msec)	300
# of Points	9167
Start Time(min)	3.000
End Time(min)	48.830
Ret.Time	Absolute Intensity	Relative Intensity
3.000	72646	2.28
3.005	68800	2.16
3.010	71289	2.24
3.015	71608	2.25
3.020	67674	2.13
3.025	68532	2.15
3.030	69146	2.17
3.035	65772	2.07
3.040	68695	2.16
3.045	66640	2.09
3.050	69710	2.19
3.055	69368	2.18
3.060	66181	2.08
3.065	67066	2.11
3.070	66869	2.10
3.075	69123	2.17
3.080	69336	2.18
3.085	68077	2.14
3.090	70678	2.22
3.095	66605	2.09
3.100	66997	2.11
3.105	67404	2.12
3.110	67757	2.13
3.115	69065	2.17
3.120	69015	2.17
3.125	66847	2.10
3.130	69358	2.18
3.135	69368	2.18
3.140	70202	2.21
3.145	69869	2.20
3.150	68164	2.14
3.155	73063	2.30
3.160	65955	2.07
3.165	67930	2.13
3.170	70702	2.22
3.175	64755	2.03
3.180	66482	2.09
3.185	69178	2.17
3.190	68631	2.16
3.195	68101	2.14
3.200	67999	2.14
3.205	67711	2.13
3.210	69291	2.18
3.215	64905	2.04
3.220	68467	2.15
3.225	64699	2.03
3.230	67220	2.11
3.235	67154	2.11
3.240	66970	2.10
3.245	71053	2.23
3.250	66913	2.10
3.255	67433	2.12
3.260	66786	2.10
3.265	69289	2.18
3.270	67447	2.12
3.275	67232	2.11
3.280	65123	2.05
3.285	68966	2.17
3.290	69157	2.17
3.295	68049	2.14
3.300	70774	2.22
3.305	65677	2.06
3.310	69226	2.18
3.315	68271	2.15
3.320	69399	2.18
3.325	68157	2.14
3.330	68398	2.15
3.335	71100	2.23
3.340	66178	2.08
3.345	67819	2.13
3.350	65586	2.06
3.355	66004	2.07
3.360	71317	2.24
3.365	66568	2.09
3.370	68159	2.14
3.375	68921	2.17
3.380	67006	2.11
3.385	69182	2.17
3.390	68820	2.16
3.395	69264	2.18
3.400	69399	2.18
3.405	67474	2.12
3.410	69057	2.17
3.415	70573	2.22
3.420	66965	2.10
3.425	67532	2.12
3.430	66681	2.10
3.435	69984	2.20
3.440	69707	2.19
3.445	66748	2.10
3.450	68356	2.15
3.455	66023	2.07
3.460	67280	2.11
3.465	66442	2.09
3.470	68907	2.17
3.475	68005	2.14
3.480	69359	2.18
3.485	65606	2.06
3.490	68054	2.14
3.495	68084	2.14
3.500	66961	2.10
3.505	70788	2.22
3.510	67974	2.14
3.515	68482	2.15
3.520	69581	2.19
3.525	67029	2.11
3.530	66749	2.10
3.535	66302	2.08
3.540	67535	2.12
3.545	69430	2.18
3.550	69639	2.19
3.555	69598	2.19
3.560	64654	2.03
3.565	66421	2.09
3.570	66473	2.09
3.575	67516	2.12
3.580	67135	2.11
3.585	66469	2.09
3.590	66585	2.09
3.595	69644	2.19
3.600	67429	2.12
3.605	68419	2.15
3.610	66864	2.10
3.615	69528	2.18
3.620	67849	2.13
3.625	67245	2.11
3.630	69009	2.17
3.635	66002	2.07
3.640	67988	2.14
3.645	71542	2.25
3.650	67136	2.11
3.655	69906	2.20
3.660	66221	2.08
3.665	68704	2.16
3.670	69480	2.18
3.675	65709	2.06
3.680	69276	2.18
3.685	68919	2.17
3.690	64142	2.02
3.695	69633	2.19
3.700	68798	2.16
3.705	69894	2.20
3.710	67034	2.11
3.715	68090	2.14
3.720	69632	2.19
3.725	68030	2.14
3.730	64637	2.03
3.735	68144	2.14
3.740	65271	2.05
3.745	71291	2.24
3.750	70160	2.20
3.755	69100	2.17
3.760	67090	2.11
3.765	65621	2.06
3.770	68362	2.15
3.775	68471	2.15
3.780	66761	2.10
3.785	67696	2.13
3.790	69961	2.20
3.795	66335	2.08
3.800	70384	2.21
3.805	67552	2.12
3.810	68915	2.17
3.815	68991	2.17
3.820	71805	2.26
3.825	68011	2.14
3.830	65126	2.05
3.835	68211	2.14
3.840	66291	2.08
3.845	67103	2.11
3.850	68394	2.15
3.855	64940	2.04
3.860	67368	2.12
3.865	67960	2.14
3.870	65951	2.07
3.875	68780	2.16
3.880	64160	2.02
3.885	71913	2.26
3.890	68376	2.15
3.895	69574	2.19
3.900	71156	2.24
3.905	66554	2.09
3.910	66832	2.10
3.915	70992	2.23
3.920	65819	2.07
3.925	66659	2.09
3.930	68163	2.14
3.935	68853	2.16
3.940	69262	2.18
3.945	67909	2.13
3.950	67040	2.11
3.955	69914	2.20
3.960	67280	2.11
3.965	71460	2.25
3.970	67841	2.13
3.975	68573	2.15
3.980	70392	2.21
3.985	68453	2.15
3.990	68475	2.15
3.995	68087	2.14
4.000	67460	2.12
4.005	70711	2.22
4.010	65901	2.07
4.015	67438	2.12
4.020	66955	2.10
4.025	67289	2.11
4.030	66541	2.09
4.035	65907	2.07
4.040	71294	2.24
4.045	67485	2.12
4.050	66227	2.08
4.055	67465	2.12
4.060	69957	2.20
4.065	67524	2.12
4.070	68632	2.16
4.075	70522	2.22
4.080	69188	2.17
4.085	66687	2.10
4.090	69597	2.19
4.095	68056	2.14
4.100	65639	2.06
4.105	64441	2.03
4.110	69667	2.19
4.115	67291	2.11
4.120	67644	2.13
4.125	65959	2.07
4.130	67083	2.11
4.135	68982	2.17
4.140	70392	2.21
4.145	67655	2.13
4.150	71014	2.23
4.155	64292	2.02
4.160	67714	2.13
4.165	66216	2.08
4.170	70421	2.21
4.175	67297	2.11
4.180	66518	2.09
4.185	68637	2.16
4.190	66681	2.10
4.195	67861	2.13
4.200	69827	2.19
4.205	66773	2.10
4.210	66809	2.10
4.215	67720	2.13
4.220	67430	2.12
4.225	68942	2.17
4.230	67159	2.11
4.235	70732	2.22
4.240	68972	2.17
4.245	67576	2.12
4.250	69537	2.19
4.255	67011	2.11
4.260	69475	2.18
4.265	70697	2.22
4.270	67687	2.13
4.275	69390	2.18
4.280	65356	2.05
4.285	66283	2.08
4.290	66965	2.10
4.295	69709	2.19
4.300	68321	2.15
4.305	68080	2.14
4.310	64867	2.04
4.315	68599	2.16
4.320	66001	2.07
4.325	69268	2.18
4.330	68009	2.14
4.335	66510	2.09
4.340	67176	2.11
4.345	67286	2.11
4.350	67988	2.14
4.355	67836	2.13
4.360	66445	2.09
4.365	66295	2.08
4.370	71158	2.24
4.375	70286	2.21
4.380	69892	2.20
4.385	67321	2.12
4.390	69996	2.20
4.395	67736	2.13
4.400	65834	2.07
4.405	68320	2.15
4.410	68452	2.15
4.415	68503	2.15
4.420	70616	2.22
4.425	65242	2.05
4.430	70081	2.20
4.435	67180	2.11
4.440	68840	2.16
4.445	69564	2.19
4.450	69635	2.19
4.455	70133	2.20
4.460	69375	2.18
4.465	63656	2.00
4.470	70654	2.22
4.475	66194	2.08
4.480	70530	2.22
4.485	68782	2.16
4.490	69222	2.18
4.495	70150	2.20
4.500	68538	2.15
4.505	70043	2.20
4.510	71852	2.26
4.515	68079	2.14
4.520	70470	2.21
4.525	68541	2.15
4.530	70066	2.20
4.535	66855	2.10
4.540	66014	2.07
4.545	69090	2.17
4.550	68289	2.15
4.555	69709	2.19
4.560	68682	2.16
4.565	68270	2.15
4.570	70031	2.20
4.575	69890	2.20
4.580	66558	2.09
4.585	70574	2.22
4.590	67370	2.12
4.595	69477	2.18
4.600	69240	2.18
4.605	70854	2.23
4.610	72285	2.27
4.615	68215	2.14
4.620	67667	2.13
4.625	69829	2.19
4.630	67556	2.12
4.635	70814	2.23
4.640	69170	2.17
4.645	68940	2.17
4.650	67215	2.11
4.655	64664	2.03
4.660	71223	2.24
4.665	68075	2.14
4.670	68025	2.14
4.675	70809	2.23
4.680	66576	2.09
4.685	70718	2.22
4.690	69941	2.20
4.695	71049	2.23
4.700	72044	2.26
4.705	68432	2.15
4.710	70673	2.22
4.715	71111	2.23
4.720	68452	2.15
4.725	68580	2.16
4.730	67356	2.12
4.735	67981	2.14
4.740	69054	2.17
4.745	67361	2.12
4.750	71451	2.25
4.755	66337	2.08
4.760	70322	2.21
4.765	69040	2.17
4.770	68439	2.15
4.775	72817	2.29
4.780	67319	2.12
4.785	66365	2.09
4.790	71169	2.24
4.795	70335	2.21
4.800	72295	2.27
4.805	68929	2.17
4.810	68633	2.16
4.815	68397	2.15
4.820	67253	2.11
4.825	68345	2.15
4.830	70545	2.22
4.835	68189	2.14
4.840	69508	2.18
4.845	68802	2.16
4.850	69564	2.19
4.855	69517	2.18
4.860	66564	2.09
4.865	70523	2.22
4.870	68769	2.16
4.875	69875	2.20
4.880	72393	2.28
4.885	68775	2.16
4.890	72719	2.29
4.895	68938	2.17
4.900	71995	2.26
4.905	72104	2.27
4.910	70850	2.23
4.915	68739	2.16
4.920	70643	2.22
4.925	67863	2.13
4.930	74311	2.34
4.935	69068	2.17
4.940	67485	2.12
4.945	69312	2.18
4.950	67729	2.13
4.955	70994	2.23
4.960	69583	2.19
4.965	66843	2.10
4.970	69032	2.17
4.975	67168	2.11
4.980	69027	2.17
4.985	67453	2.12
4.990	65440	2.06
4.995	66334	2.08
5.000	68501	2.15
5.005	68838	2.16
5.010	70544	2.22
5.015	66345	2.08
5.020	71302	2.24
5.025	69720	2.19
5.030	65374	2.05
5.035	68137	2.14
5.040	68115	2.14
5.045	70185	2.21
5.050	69076	2.17
5.055	67368	2.12
5.060	71704	2.25
5.065	68653	2.16
5.070	67504	2.12
5.075	71443	2.25
5.080	68409	2.15
5.085	70209	2.21
5.090	67361	2.12
5.095	68945	2.17
5.100	70455	2.21
5.105	68131	2.14
5.110	71158	2.24
5.115	68627	2.16
5.120	69908	2.20
5.125	71201	2.24
5.130	66388	2.09
5.135	73090	2.30
5.140	70291	2.21
5.145	69399	2.18
5.150	72521	2.28
5.155	68964	2.17
5.160	69234	2.18
5.165	68413	2.15
5.170	68699	2.16
5.175	70547	2.22
5.180	68533	2.15
5.185	68964	2.17
5.190	70626	2.22
5.195	68251	2.14
5.200	69439	2.18
5.205	71105	2.23
5.210	70329	2.21
5.215	72618	2.28
5.220	68950	2.17
5.225	67826	2.13
5.230	69996	2.20
5.235	68044	2.14
5.240	66233	2.08
5.245	71351	2.24
5.250	67574	2.12
5.255	70823	2.23
5.260	70145	2.20
5.265	65791	2.07
5.270	69241	2.18
5.275	69118	2.17
5.280	67340	2.12
5.285	69145	2.17
5.290	67204	2.11
5.295	71383	2.24
5.300	70754	2.22
5.305	69361	2.18
5.310	69158	2.17
5.315	69333	2.18
5.320	68413	2.15
5.325	65357	2.05
5.330	68675	2.16
5.335	67587	2.12
5.340	67901	2.13
5.345	71193	2.24
5.350	68323	2.15
5.355	70228	2.21
5.360	70097	2.20
5.365	66072	2.08
5.370	69752	2.19
5.375	68680	2.16
5.380	68638	2.16
5.385	69814	2.19
5.390	67771	2.13
5.395	67191	2.11
5.400	68605	2.16
5.405	69177	2.17
5.410	68349	2.15
5.415	69571	2.19
5.420	69615	2.19
5.425	70373	2.21
5.430	66363	2.09
5.435	68504	2.15
5.440	67024	2.11
5.445	66693	2.10
5.450	69709	2.19
5.455	69948	2.20
5.460	68501	2.15
5.465	67203	2.11
5.470	71557	2.25
5.475	69053	2.17
5.480	70988	2.23
5.485	70201	2.21
5.490	69175	2.17
5.495	70019	2.20
5.500	72243	2.27
5.505	66263	2.08
5.510	69311	2.18
5.515	71355	2.24
5.520	68028	2.14
5.525	69216	2.18
5.530	66158	2.08
5.535	70678	2.22
5.540	68692	2.16
5.545	67756	2.13
5.550	69147	2.17
5.555	69226	2.18
5.560	66395	2.09
5.565	69827	2.19
5.570	67407	2.12
5.575	69179	2.17
5.580	69710	2.19
5.585	70101	2.20
5.590	68993	2.17
5.595	70394	2.21
5.600	70069	2.20
5.605	70565	2.22
5.610	67650	2.13
5.615	66857	2.10
5.620	68816	2.16
5.625	68309	2.15
5.630	71961	2.26
5.635	68254	2.14
5.640	67577	2.12
5.645	69048	2.17
5.650	68097	2.14
5.655	67981	2.14
5.660	69869	2.20
5.665	69496	2.18
5.670	69543	2.19
5.675	66769	2.10
5.680	69099	2.17
5.685	68898	2.17
5.690	73041	2.30
5.695	67606	2.12
5.700	68045	2.14
5.705	74982	2.36
5.710	68985	2.17
5.715	69293	2.18
5.720	71950	2.26
5.725	67971	2.14
5.730	65910	2.07
5.735	70236	2.21
5.740	68435	2.15
5.745	69227	2.18
5.750	69702	2.19
5.755	69502	2.18
5.760	68836	2.16
5.765	66112	2.08
5.770	70244	2.21
5.775	69177	2.17
5.780	68665	2.16
5.785	70588	2.22
5.790	71407	2.24
5.795	67609	2.12
5.800	70859	2.23
5.805	67534	2.12
5.810	69750	2.19
5.815	68408	2.15
5.820	67447	2.12
5.825	66284	2.08
5.830	70828	2.23
5.835	67156	2.11
5.840	66788	2.10
5.845	69387	2.18
5.850	71604	2.25
5.855	70655	2.22
5.860	68964	2.17
5.865	68082	2.14
5.870	68622	2.16
5.875	70379	2.21
5.880	70374	2.21
5.885	70075	2.20
5.890	69207	2.17
5.895	69176	2.17
5.900	69816	2.19
5.905	66936	2.10
5.910	69214	2.18
5.915	71876	2.26
5.920	66683	2.10
5.925	66976	2.10
5.930	67484	2.12
5.935	68815	2.16
5.940	69800	2.19
5.945	70996	2.23
5.950	68497	2.15
5.955	69952	2.20
5.960	70617	2.22
5.965	69443	2.18
5.970	66144	2.08
5.975	75790	2.38
5.980	69548	2.19
5.985	70488	2.22
5.990	70959	2.23
5.995	71595	2.25
6.000	71631	2.25
6.005	71910	2.26
6.010	68528	2.15
6.015	69311	2.18
6.020	68407	2.15
6.025	67600	2.12
6.030	68949	2.17
6.035	67505	2.12
6.040	69925	2.20
6.045	67729	2.13
6.050	68853	2.16
6.055	67778	2.13
6.060	66052	2.08
6.065	69346	2.18
6.070	70862	2.23
6.075	66123	2.08
6.080	72927	2.29
6.085	70699	2.22
6.090	69172	2.17
6.095	69362	2.18
6.100	66437	2.09
6.105	70741	2.22
6.110	68107	2.14
6.115	73015	2.29
6.120	69490	2.18
6.125	67991	2.14
6.130	69583	2.19
6.135	68816	2.16
6.140	66740	2.10
6.145	70329	2.21
6.150	69430	2.18
6.155	70176	2.21
6.160	68746	2.16
6.165	70281	2.21
6.170	68933	2.17
6.175	68557	2.15
6.180	68005	2.14
6.185	69514	2.18
6.190	68989	2.17
6.195	70467	2.21
6.200	68310	2.15
6.205	69228	2.18
6.210	71111	2.23
6.215	69388	2.18
6.220	70177	2.21
6.225	70711	2.22
6.230	67489	2.12
6.235	67086	2.11
6.240	67868	2.13
6.245	70143	2.20
6.250	69478	2.18
6.255	69537	2.19
6.260	69608	2.19
6.265	72060	2.26
6.270	70286	2.21
6.275	72326	2.27
6.280	66251	2.08
6.285	70586	2.22
6.290	70383	2.21
6.295	67154	2.11
6.300	69422	2.18
6.305	70199	2.21
6.310	65595	2.06
6.315	68262	2.15
6.320	67019	2.11
6.325	68459	2.15
6.330	69670	2.19
6.335	69165	2.17
6.340	69159	2.17
6.345	69124	2.17
6.350	70241	2.21
6.355	70103	2.20
6.360	66593	2.09
6.365	68344	2.15
6.370	66073	2.08
6.375	70740	2.22
6.380	69257	2.18
6.385	70219	2.21
6.390	69819	2.19
6.395	68722	2.16
6.400	72069	2.26
6.405	68295	2.15
6.410	68194	2.14
6.415	71853	2.26
6.420	68812	2.16
6.425	68107	2.14
6.430	72662	2.28
6.435	70042	2.20
6.440	70216	2.21
6.445	70922	2.23
6.450	67453	2.12
6.455	67614	2.12
6.460	66391	2.09
6.465	70216	2.21
6.470	71181	2.24
6.475	69400	2.18
6.480	69847	2.20
6.485	71249	2.24
6.490	70466	2.21
6.495	69375	2.18
6.500	69980	2.20
6.505	71161	2.24
6.510	69079	2.17
6.515	68715	2.16
6.520	74156	2.33
6.525	69088	2.17
6.530	69923	2.20
6.535	70741	2.22
6.540	68106	2.14
6.545	68919	2.17
6.550	69677	2.19
6.555	68969	2.17
6.560	68420	2.15
6.565	71697	2.25
6.570	69767	2.19
6.575	68138	2.14
6.580	70976	2.23
6.585	70618	2.22
6.590	67745	2.13
6.595	73044	2.30
6.600	71066	2.23
6.605	70027	2.20
6.610	72455	2.28
6.615	69169	2.17
6.620	70098	2.20
6.625	72924	2.29
6.630	69363	2.18
6.635	69197	2.17
6.640	67322	2.12
6.645	69617	2.19
6.650	68077	2.14
6.655	68772	2.16
6.660	72842	2.29
6.665	66944	2.10
6.670	71392	2.24
6.675	69441	2.18
6.680	67164	2.11
6.685	69876	2.20
6.690	71537	2.25
6.695	70197	2.21
6.700	66386	2.09
6.705	67333	2.12
6.710	71406	2.24
6.715	70942	2.23
6.720	65375	2.05
6.725	69686	2.19
6.730	68857	2.16
6.735	71066	2.23
6.740	71640	2.25
6.745	69954	2.20
6.750	71506	2.25
6.755	68189	2.14
6.760	68361	2.15
6.765	71703	2.25
6.770	69082	2.17
6.775	70282	2.21
6.780	67973	2.14
6.785	68947	2.17
6.790	73626	2.31
6.795	70889	2.23
6.800	69069	2.17
6.805	72552	2.28
6.810	68559	2.15
6.815	69803	2.19
6.820	73915	2.32
6.825	69666	2.19
6.830	70092	2.20
6.835	70840	2.23
6.840	71846	2.26
6.845	72475	2.28
6.850	70275	2.21
6.855	70846	2.23
6.860	71890	2.26
6.865	69388	2.18
6.870	71100	2.23
6.875	69000	2.17
6.880	71600	2.25
6.885	69910	2.20
6.890	70823	2.23
6.895	72252	2.27
6.900	67566	2.12
6.905	70984	2.23
6.910	69760	2.19
6.915	68724	2.16
6.920	71539	2.25
6.925	69140	2.17
6.930	68397	2.15
6.935	69420	2.18
6.940	66701	2.10
6.945	70167	2.21
6.950	73116	2.30
6.955	66238	2.08
6.960	74911	2.35
6.965	68969	2.17
6.970	74754	2.35
6.975	70260	2.21
6.980	72297	2.27
6.985	71429	2.24
6.990	71790	2.26
6.995	68589	2.16
7.000	69588	2.19
7.005	66329	2.08
7.010	70791	2.22
7.015	71610	2.25
7.020	71396	2.24
7.025	71151	2.24
7.030	70729	2.22
7.035	69410	2.18
7.040	68745	2.16
7.045	69522	2.18
7.050	67437	2.12
7.055	73799	2.32
7.060	68723	2.16
7.065	71329	2.24
7.070	69787	2.19
7.075	70904	2.23
7.080	72838	2.29
7.085	69073	2.17
7.090	73805	2.32
7.095	68255	2.14
7.100	73964	2.32
7.105	72121	2.27
7.110	68564	2.15
7.115	71110	2.23
7.120	70200	2.21
7.125	67642	2.13
7.130	72635	2.28
7.135	71804	2.26
7.140	71965	2.26
7.145	71567	2.25
7.150	68892	2.17
7.155	71910	2.26
7.160	72203	2.27
7.165	70104	2.20
7.170	74086	2.33
7.175	72300	2.27
7.180	68026	2.14
7.185	68187	2.14
7.190	69051	2.17
7.195	70559	2.22
7.200	68069	2.14
7.205	69062	2.17
7.210	69820	2.19
7.215	70928	2.23
7.220	68605	2.16
7.225	69613	2.19
7.230	69611	2.19
7.235	71034	2.23
7.240	69388	2.18
7.245	68025	2.14
7.250	71046	2.23
7.255	74089	2.33
7.260	71116	2.23
7.265	70072	2.20
7.270	72696	2.28
7.275	72060	2.26
7.280	72062	2.26
7.285	71224	2.24
7.290	71606	2.25
7.295	70630	2.22
7.300	69924	2.20
7.305	70478	2.21
7.310	70584	2.22
7.315	69712	2.19
7.320	70432	2.21
7.325	68977	2.17
7.330	69270	2.18
7.335	68758	2.16
7.340	69005	2.17
7.345	72105	2.27
7.350	70711	2.22
7.355	69418	2.18
7.360	73557	2.31
7.365	71843	2.26
7.370	69131	2.17
7.375	68797	2.16
7.380	69101	2.17
7.385	71692	2.25
7.390	69507	2.18
7.395	72074	2.27
7.400	71488	2.25
7.405	68784	2.16
7.410	68398	2.15
7.415	69480	2.18
7.420	69562	2.19
7.425	71067	2.23
7.430	70387	2.21
7.435	74039	2.33
7.440	74586	2.34
7.445	75351	2.37
7.450	75139	2.36
7.455	75800	2.38
7.460	79250	2.49
7.465	82357	2.59
7.470	83773	2.63
7.475	82783	2.60
7.480	79879	2.51
7.485	79181	2.49
7.490	82480	2.59
7.495	80777	2.54
7.500	80388	2.53
7.505	76048	2.39
7.510	75954	2.39
7.515	76712	2.41
7.520	77501	2.44
7.525	76890	2.42
7.530	76711	2.41
7.535	76052	2.39
7.540	75076	2.36
7.545	74366	2.34
7.550	75749	2.38
7.555	76682	2.41
7.560	72965	2.29
7.565	73731	2.32
7.570	74580	2.34
7.575	74477	2.34
7.580	75126	2.36
7.585	71385	2.24
7.590	71845	2.26
7.595	73382	2.31
7.600	72253	2.27
7.605	73436	2.31
7.610	73685	2.32
7.615	76011	2.39
7.620	75444	2.37
7.625	74271	2.33
7.630	71769	2.26
7.635	72838	2.29
7.640	77402	2.43
7.645	73411	2.31
7.650	74341	2.34
7.655	75010	2.36
7.660	69690	2.19
7.665	77046	2.42
7.670	73969	2.32
7.675	73676	2.32
7.680	73964	2.32
7.685	71074	2.23
7.690	73710	2.32
7.695	72813	2.29
7.700	72818	2.29
7.705	70965	2.23
7.710	71124	2.24
7.715	71104	2.23
7.720	73141	2.30
7.725	73886	2.32
7.730	71539	2.25
7.735	73847	2.32
7.740	74572	2.34
7.745	75135	2.36
7.750	71899	2.26
7.755	75962	2.39
7.760	73511	2.31
7.765	69007	2.17
7.770	74039	2.33
7.775	72698	2.28
7.780	74045	2.33
7.785	75724	2.38
7.790	71354	2.24
7.795	76019	2.39
7.800	75553	2.37
7.805	69771	2.19
7.810	76991	2.42
7.815	71342	2.24
7.820	76547	2.41
7.825	74693	2.35
7.830	73919	2.32
7.835	71442	2.25
7.840	76238	2.40
7.845	73465	2.31
7.850	75387	2.37
7.855	74188	2.33
7.860	73149	2.30
7.865	71406	2.24
7.870	70898	2.23
7.875	73110	2.30
7.880	68882	2.16
7.885	69093	2.17
7.890	70778	2.22
7.895	71891	2.26
7.900	74389	2.34
7.905	72423	2.28
7.910	71815	2.26
7.915	71809	2.26
7.920	70278	2.21
7.925	72321	2.27
7.930	70809	2.23
7.935	70920	2.23
7.940	73306	2.30
7.945	69601	2.19
7.950	73644	2.31
7.955	72344	2.27
7.960	70198	2.21
7.965	74707	2.35
7.970	73203	2.30
7.975	73107	2.30
7.980	73345	2.30
7.985	71907	2.26
7.990	70051	2.20
7.995	73783	2.32
8.000	71948	2.26
8.005	73161	2.30
8.010	72821	2.29
8.015	74709	2.35
8.020	75672	2.38
8.025	71891	2.26
8.030	74675	2.35
8.035	72429	2.28
8.040	72805	2.29
8.045	72663	2.28
8.050	68740	2.16
8.055	71124	2.24
8.060	70765	2.22
8.065	71344	2.24
8.070	74417	2.34
8.075	72799	2.29
8.080	73535	2.31
8.085	71893	2.26
8.090	73781	2.32
8.095	73303	2.30
8.100	71206	2.24
8.105	72131	2.27
8.110	70252	2.21
8.115	70455	2.21
8.120	70562	2.22
8.125	70100	2.20
8.130	69103	2.17
8.135	70387	2.21
8.140	71400	2.24
8.145	74586	2.34
8.150	68551	2.15
8.155	70580	2.22
8.160	71680	2.25
8.165	71389	2.24
8.170	72523	2.28
8.175	71990	2.26
8.180	70955	2.23
8.185	70889	2.23
8.190	75054	2.36
8.195	71862	2.26
8.200	72089	2.27
8.205	72532	2.28
8.210	71427	2.24
8.215	74599	2.34
8.220	73483	2.31
8.225	74203	2.33
8.230	69769	2.19
8.235	71453	2.25
8.240	73485	2.31
8.245	70568	2.22
8.250	73769	2.32
8.255	69666	2.19
8.260	70093	2.20
8.265	70638	2.22
8.270	69082	2.17
8.275	71842	2.26
8.280	69801	2.19
8.285	67960	2.14
8.290	73327	2.30
8.295	68382	2.15
8.300	70768	2.22
8.305	68563	2.15
8.310	64180	2.02
8.315	70153	2.20
8.320	71809	2.26
8.325	71887	2.26
8.330	72112	2.27
8.335	69504	2.18
8.340	73096	2.30
8.345	74286	2.33
8.350	69260	2.18
8.355	70676	2.22
8.360	67489	2.12
8.365	67045	2.11
8.370	68330	2.15
8.375	70407	2.21
8.380	73234	2.30
8.385	70135	2.20
8.390	72905	2.29
8.395	72894	2.29
8.400	70658	2.22
8.405	71990	2.26
8.410	72683	2.28
8.415	73354	2.31
8.420	70602	2.22
8.425	70498	2.22
8.430	71431	2.24
8.435	71733	2.25
8.440	68730	2.16
8.445	71976	2.26
8.450	70193	2.21
8.455	71894	2.26
8.460	71115	2.23
8.465	71287	2.24
8.470	69519	2.18
8.475	69820	2.19
8.480	66574	2.09
8.485	69156	2.17
8.490	66645	2.09
8.495	70817	2.23
8.500	68190	2.14
8.505	70271	2.21
8.510	71438	2.25
8.515	71690	2.25
8.520	69330	2.18
8.525	69572	2.19
8.530	69470	2.18
8.535	72013	2.26
8.540	69609	2.19
8.545	70320	2.21
8.550	73971	2.32
8.555	70909	2.23
8.560	70813	2.23
8.565	68738	2.16
8.570	69981	2.20
8.575	72197	2.27
8.580	69732	2.19
8.585	71176	2.24
8.590	73179	2.30
8.595	67998	2.14
8.600	70065	2.20
8.605	70779	2.22
8.610	72484	2.28
8.615	70704	2.22
8.620	69571	2.19
8.625	73344	2.30
8.630	70030	2.20
8.635	67703	2.13
8.640	68408	2.15
8.645	70228	2.21
8.650	69314	2.18
8.655	72894	2.29
8.660	64720	2.03
8.665	68324	2.15
8.670	68454	2.15
8.675	72658	2.28
8.680	68422	2.15
8.685	68235	2.14
8.690	69686	2.19
8.695	70408	2.21
8.700	67128	2.11
8.705	69174	2.17
8.710	68555	2.15
8.715	69447	2.18
8.720	70394	2.21
8.725	69090	2.17
8.730	71592	2.25
8.735	71183	2.24
8.740	71423	2.24
8.745	72270	2.27
8.750	68890	2.16
8.755	70936	2.23
8.760	71401	2.24
8.765	69633	2.19
8.770	70414	2.21
8.775	69096	2.17
8.780	64120	2.02
8.785	70470	2.21
8.790	67669	2.13
8.795	71878	2.26
8.800	70080	2.20
8.805	70178	2.21
8.810	72217	2.27
8.815	69912	2.20
8.820	72034	2.26
8.825	67667	2.13
8.830	70141	2.20
8.835	71490	2.25
8.840	65467	2.06
8.845	68264	2.15
8.850	68365	2.15
8.855	67351	2.12
8.860	66757	2.10
8.865	66462	2.09
8.870	69264	2.18
8.875	69707	2.19
8.880	65614	2.06
8.885	69721	2.19
8.890	67083	2.11
8.895	68909	2.17
8.900	69592	2.19
8.905	67644	2.13
8.910	72398	2.28
8.915	67226	2.11
8.920	70514	2.22
8.925	72074	2.27
8.930	68694	2.16
8.935	71913	2.26
8.940	70875	2.23
8.945	70045	2.20
8.950	71855	2.26
8.955	67552	2.12
8.960	68017	2.14
8.965	68196	2.14
8.970	68742	2.16
8.975	72350	2.27
8.980	66812	2.10
8.985	68501	2.15
8.990	71902	2.26
8.995	67042	2.11
9.000	70413	2.21
9.005	67897	2.13
9.010	68828	2.16
9.015	68032	2.14
9.020	64654	2.03
9.025	70975	2.23
9.030	64495	2.03
9.035	67679	2.13
9.040	67995	2.14
9.045	66014	2.07
9.050	68620	2.16
9.055	67905	2.13
9.060	67861	2.13
9.065	68796	2.16
9.070	64747	2.03
9.075	69373	2.18
9.080	65671	2.06
9.085	64262	2.02
9.090	68411	2.15
9.095	66845	2.10
9.100	65894	2.07
9.105	68132	2.14
9.110	62788	1.97
9.115	68225	2.14
9.120	65921	2.07
9.125	68817	2.16
9.130	68691	2.16
9.135	69266	2.18
9.140	69181	2.17
9.145	67744	2.13
9.150	66817	2.10
9.155	66325	2.08
9.160	66979	2.10
9.165	66666	2.10
9.170	66867	2.10
9.175	67525	2.12
9.180	67213	2.11
9.185	64651	2.03
9.190	71609	2.25
9.195	67106	2.11
9.200	67835	2.13
9.205	68093	2.14
9.210	68028	2.14
9.215	69471	2.18
9.220	67989	2.14
9.225	68332	2.15
9.230	68571	2.15
9.235	69197	2.17
9.240	68231	2.14
9.245	66307	2.08
9.250	68143	2.14
9.255	66396	2.09
9.260	65950	2.07
9.265	69104	2.17
9.270	70491	2.22
9.275	66888	2.10
9.280	66655	2.09
9.285	65650	2.06
9.290	66340	2.08
9.295	66362	2.09
9.300	63571	2.00
9.305	67239	2.11
9.310	68336	2.15
9.315	65512	2.06
9.320	64199	2.02
9.325	65293	2.05
9.330	70997	2.23
9.335	68383	2.15
9.340	66169	2.08
9.345	65495	2.06
9.350	66728	2.10
9.355	64257	2.02
9.360	64988	2.04
9.365	65759	2.07
9.370	67737	2.13
9.375	67773	2.13
9.380	65658	2.06
9.385	66594	2.09
9.390	63820	2.01
9.395	66392	2.09
9.400	66531	2.09
9.405	64787	2.04
9.410	67159	2.11
9.415	64128	2.02
9.420	66640	2.09
9.425	65143	2.05
9.430	64901	2.04
9.435	64154	2.02
9.440	63968	2.01
9.445	64785	2.04
9.450	67806	2.13
9.455	66624	2.09
9.460	63547	2.00
9.465	64549	2.03
9.470	65030	2.04
9.475	66188	2.08
9.480	62128	1.95
9.485	66566	2.09
9.490	67163	2.11
9.495	68683	2.16
9.500	66707	2.10
9.505	63814	2.01
9.510	69199	2.17
9.515	65866	2.07
9.520	66338	2.08
9.525	67524	2.12
9.530	67629	2.13
9.535	64941	2.04
9.540	67382	2.12
9.545	63235	1.99
9.550	65789	2.07
9.555	66423	2.09
9.560	63512	2.00
9.565	66202	2.08
9.570	64358	2.02
9.575	64551	2.03
9.580	65772	2.07
9.585	63866	2.01
9.590	68342	2.15
9.595	63932	2.01
9.600	64781	2.04
9.605	66982	2.10
9.610	64699	2.03
9.615	65494	2.06
9.620	62807	1.97
9.625	62764	1.97
9.630	66590	2.09
9.635	61913	1.95
9.640	64321	2.02
9.645	63671	2.00
9.650	62096	1.95
9.655	63712	2.00
9.660	64083	2.01
9.665	64005	2.01
9.670	63867	2.01
9.675	63364	1.99
9.680	64593	2.03
9.685	61840	1.94
9.690	63151	1.98
9.695	64716	2.03
9.700	62686	1.97
9.705	60518	1.90
9.710	66692	2.10
9.715	65012	2.04
9.720	67863	2.13
9.725	65718	2.07
9.730	62646	1.97
9.735	64594	2.03
9.740	64435	2.02
9.745	68549	2.15
9.750	67374	2.12
9.755	63283	1.99
9.760	65226	2.05
9.765	62587	1.97
9.770	65424	2.06
9.775	63369	1.99
9.780	60592	1.90
9.785	61061	1.92
9.790	65647	2.06
9.795	62377	1.96
9.800	65192	2.05
9.805	63572	2.00
9.810	66576	2.09
9.815	64286	2.02
9.820	64236	2.02
9.825	65773	2.07
9.830	65128	2.05
9.835	64258	2.02
9.840	64040	2.01
9.845	64707	2.03
9.850	63665	2.00
9.855	63417	1.99
9.860	61853	1.94
9.865	62688	1.97
9.870	61357	1.93
9.875	62072	1.95
9.880	62922	1.98
9.885	65469	2.06
9.890	64746	2.03
9.895	62705	1.97
9.900	65958	2.07
9.905	64599	2.03
9.910	64629	2.03
9.915	63414	1.99
9.920	62415	1.96
9.925	64311	2.02
9.930	65013	2.04
9.935	63736	2.00
9.940	65563	2.06
9.945	65263	2.05
9.950	63341	1.99
9.955	63062	1.98
9.960	65005	2.04
9.965	62703	1.97
9.970	63352	1.99
9.975	61733	1.94
9.980	63692	2.00
9.985	64492	2.03
9.990	64237	2.02
9.995	66299	2.08
10.000	60952	1.92
10.005	62180	1.95
10.010	60148	1.89
10.015	59850	1.88
10.020	63384	1.99
10.025	59155	1.86
10.030	61915	1.95
10.035	62764	1.97
10.040	60196	1.89
10.045	62950	1.98
10.050	59611	1.87
10.055	60710	1.91
10.060	61252	1.92
10.065	60169	1.89
10.070	62413	1.96
10.075	60897	1.91
10.080	61190	1.92
10.085	62710	1.97
10.090	59416	1.87
10.095	61200	1.92
10.100	61664	1.94
10.105	62852	1.98
10.110	62232	1.96
10.115	61905	1.95
10.120	66066	2.08
10.125	62604	1.97
10.130	59913	1.88
10.135	62348	1.96
10.140	59761	1.88
10.145	63362	1.99
10.150	64563	2.03
10.155	61045	1.92
10.160	63567	2.00
10.165	63000	1.98
10.170	61116	1.92
10.175	61752	1.94
10.180	60225	1.89
10.185	64922	2.04
10.190	66735	2.10
10.195	62720	1.97
10.200	61905	1.95
10.205	65298	2.05
10.210	65784	2.07
10.215	66843	2.10
10.220	64386	2.02
10.225	66150	2.08
10.230	64571	2.03
10.235	62918	1.98
10.240	62709	1.97
10.245	61793	1.94
10.250	62315	1.96
10.255	60855	1.91
10.260	60802	1.91
10.265	59581	1.87
10.270	63124	1.98
10.275	63329	1.99
10.280	61925	1.95
10.285	62764	1.97
10.290	61843	1.94
10.295	60157	1.89
10.300	62173	1.95
10.305	63981	2.01
10.310	60325	1.90
10.315	63047	1.98
10.320	61157	1.92
10.325	59007	1.85
10.330	59616	1.87
10.335	62295	1.96
10.340	59136	1.86
10.345	62659	1.97
10.350	61715	1.94
10.355	61349	1.93
10.360	56161	1.76
10.365	61018	1.92
10.370	60763	1.91
10.375	62433	1.96
10.380	63439	1.99
10.385	60318	1.90
10.390	63397	1.99
10.395	62180	1.95
10.400	60576	1.90
10.405	63605	2.00
10.410	61338	1.93
10.415	64104	2.01
10.420	62061	1.95
10.425	62318	1.96
10.430	64002	2.01
10.435	62611	1.97
10.440	63255	1.99
10.445	64713	2.03
10.450	61388	1.93
10.455	64429	2.02
10.460	62850	1.98
10.465	61789	1.94
10.470	62536	1.97
10.475	60069	1.89
10.480	64373	2.02
10.485	61664	1.94
10.490	60887	1.91
10.495	61963	1.95
10.500	64270	2.02
10.505	63015	1.98
10.510	61126	1.92
10.515	61461	1.93
10.520	61252	1.92
10.525	64651	2.03
10.530	62691	1.97
10.535	62292	1.96
10.540	62849	1.98
10.545	64384	2.02
10.550	62431	1.96
10.555	60756	1.91
10.560	60776	1.91
10.565	60878	1.91
10.570	59707	1.88
10.575	61634	1.94
10.580	56566	1.78
10.585	64677	2.03
10.590	61874	1.94
10.595	60047	1.89
10.600	59486	1.87
10.605	63295	1.99
10.610	63387	1.99
10.615	62039	1.95
10.620	60947	1.92
10.625	60234	1.89
10.630	61379	1.93
10.635	60884	1.91
10.640	61548	1.93
10.645	58739	1.85
10.650	63334	1.99
10.655	60809	1.91
10.660	60664	1.91
10.665	63824	2.01
10.670	60278	1.89
10.675	62444	1.96
10.680	61565	1.93
10.685	57506	1.81
10.690	64740	2.03
10.695	58349	1.83
10.700	59933	1.88
10.705	59201	1.86
10.710	59278	1.86
10.715	60411	1.90
10.720	59690	1.88
10.725	63925	2.01
10.730	61116	1.92
10.735	57422	1.80
10.740	62901	1.98
10.745	61173	1.92
10.750	57416	1.80
10.755	60746	1.91
10.760	58183	1.83
10.765	60258	1.89
10.770	59407	1.87
10.775	59366	1.87
10.780	61245	1.92
10.785	59397	1.87
10.790	61878	1.94
10.795	62090	1.95
10.800	60482	1.90
10.805	61847	1.94
10.810	64026	2.01
10.815	58358	1.83
10.820	61567	1.93
10.825	62768	1.97
10.830	58158	1.83
10.835	60013	1.89
10.840	60307	1.90
10.845	61144	1.92
10.850	56787	1.78
10.855	61869	1.94
10.860	61410	1.93
10.865	59407	1.87
10.870	62425	1.96
10.875	60192	1.89
10.880	59417	1.87
10.885	60577	1.90
10.890	56452	1.77
10.895	60127	1.89
10.900	60876	1.91
10.905	60727	1.91
10.910	61018	1.92
10.915	58919	1.85
10.920	63916	2.01
10.925	61136	1.92
10.930	61458	1.93
10.935	60179	1.89
10.940	62022	1.95
10.945	61618	1.94
10.950	60872	1.91
10.955	61298	1.93
10.960	62334	1.96
10.965	60013	1.89
10.970	62505	1.96
10.975	62768	1.97
10.980	59853	1.88
10.985	62443	1.96
10.990	61250	1.92
10.995	61045	1.92
11.000	63827	2.01
11.005	60689	1.91
11.010	62806	1.97
11.015	66188	2.08
11.020	60374	1.90
11.025	62640	1.97
11.030	60530	1.90
11.035	63272	1.99
11.040	61436	1.93
11.045	60039	1.89
11.050	62974	1.98
11.055	61820	1.94
11.060	62855	1.98
11.065	61472	1.93
11.070	64361	2.02
11.075	62967	1.98
11.080	65347	2.05
11.085	64348	2.02
11.090	65983	2.07
11.095	61812	1.94
11.100	61882	1.94
11.105	65215	2.05
11.110	62638	1.97
11.115	64543	2.03
11.120	65060	2.04
11.125	64756	2.04
11.130	66602	2.09
11.135	63709	2.00
11.140	66230	2.08
11.145	59988	1.89
11.150	62110	1.95
11.155	64120	2.02
11.160	62275	1.96
11.165	64164	2.02
11.170	65191	2.05
11.175	63757	2.00
11.180	66625	2.09
11.185	62219	1.96
11.190	59932	1.88
11.195	61223	1.92
11.200	60522	1.90
11.205	62127	1.95
11.210	64761	2.04
11.215	59950	1.88
11.220	64940	2.04
11.225	62336	1.96
11.230	63661	2.00
11.235	63670	2.00
11.240	58899	1.85
11.245	62508	1.96
11.250	61379	1.93
11.255	62714	1.97
11.260	64777	2.04
11.265	64055	2.01
11.270	62108	1.95
11.275	61312	1.93
11.280	60160	1.89
11.285	62240	1.96
11.290	59957	1.88
11.295	66195	2.08
11.300	63635	2.00
11.305	58949	1.85
11.310	59800	1.88
11.315	64303	2.02
11.320	64890	2.04
11.325	61474	1.93
11.330	63771	2.00
11.335	64171	2.02
11.340	63460	1.99
11.345	65167	2.05
11.350	64183	2.02
11.355	61350	1.93
11.360	63649	2.00
11.365	61489	1.93
11.370	61835	1.94
11.375	64315	2.02
11.380	59838	1.88
11.385	62632	1.97
11.390	61187	1.92
11.395	62033	1.95
11.400	62300	1.96
11.405	61948	1.95
11.410	64377	2.02
11.415	61532	1.93
11.420	61549	1.93
11.425	61670	1.94
11.430	61089	1.92
11.435	64701	2.03
11.440	64601	2.03
11.445	59569	1.87
11.450	64536	2.03
11.455	64225	2.02
11.460	62539	1.97
11.465	60603	1.90
11.470	59314	1.86
11.475	61831	1.94
11.480	62130	1.95
11.485	61623	1.94
11.490	62609	1.97
11.495	61117	1.92
11.500	57205	1.80
11.505	60405	1.90
11.510	63415	1.99
11.515	59840	1.88
11.520	59558	1.87
11.525	60093	1.89
11.530	60020	1.89
11.535	59764	1.88
11.540	60986	1.92
11.545	61972	1.95
11.550	63753	2.00
11.555	62838	1.97
11.560	61077	1.92
11.565	61512	1.93
11.570	60428	1.90
11.575	59681	1.88
11.580	63474	1.99
11.585	62008	1.95
11.590	61903	1.95
11.595	60332	1.90
11.600	61251	1.92
11.605	62163	1.95
11.610	64352	2.02
11.615	60889	1.91
11.620	63941	2.01
11.625	60819	1.91
11.630	61257	1.93
11.635	60550	1.90
11.640	60617	1.90
11.645	61409	1.93
11.650	62411	1.96
11.655	61205	1.92
11.660	61497	1.93
11.665	61437	1.93
11.670	64008	2.01
11.675	60770	1.91
11.680	60664	1.91
11.685	62560	1.97
11.690	62680	1.97
11.695	62306	1.96
11.700	63818	2.01
11.705	62319	1.96
11.710	64076	2.01
11.715	62423	1.96
11.720	62240	1.96
11.725	61550	1.93
11.730	63461	1.99
11.735	60580	1.90
11.740	61627	1.94
11.745	62338	1.96
11.750	61757	1.94
11.755	59575	1.87
11.760	63421	1.99
11.765	60552	1.90
11.770	61055	1.92
11.775	60923	1.91
11.780	61759	1.94
11.785	64001	2.01
11.790	62641	1.97
11.795	59941	1.88
11.800	63722	2.00
11.805	63954	2.01
11.810	59930	1.88
11.815	63766	2.00
11.820	64015	2.01
11.825	62666	1.97
11.830	58455	1.84
11.835	59822	1.88
11.840	62070	1.95
11.845	59591	1.87
11.850	61571	1.93
11.855	59768	1.88
11.860	60528	1.90
11.865	59881	1.88
11.870	62194	1.95
11.875	58733	1.85
11.880	60708	1.91
11.885	60037	1.89
11.890	61154	1.92
11.895	61635	1.94
11.900	59653	1.87
11.905	61190	1.92
11.910	60814	1.91
11.915	61199	1.92
11.920	59225	1.86
11.925	61503	1.93
11.930	61398	1.93
11.935	62261	1.96
11.940	60861	1.91
11.945	64014	2.01
11.950	60822	1.91
11.955	61151	1.92
11.960	60921	1.91
11.965	60531	1.90
11.970	61502	1.93
11.975	59712	1.88
11.980	60448	1.90
11.985	57707	1.81
11.990	60832	1.91
11.995	65058	2.04
12.000	58830	1.85
12.005	61101	1.92
12.010	61108	1.92
12.015	59102	1.86
12.020	65372	2.05
12.025	63920	2.01
12.030	68968	2.17
12.035	69527	2.18
12.040	72934	2.29
12.045	78657	2.47
12.050	83794	2.63
12.055	86102	2.71
12.060	94136	2.96
12.065	93448	2.94
12.070	96118	3.02
12.075	98029	3.08
12.080	97572	3.07
12.085	98212	3.09
12.090	95031	2.99
12.095	92354	2.90
12.100	93865	2.95
12.105	89951	2.83
12.110	85828	2.70
12.115	84326	2.65
12.120	83777	2.63
12.125	84340	2.65
12.130	75719	2.38
12.135	75896	2.39
12.140	78134	2.46
12.145	72982	2.29
12.150	76985	2.42
12.155	73935	2.32
12.160	72759	2.29
12.165	74077	2.33
12.170	73067	2.30
12.175	74448	2.34
12.180	73630	2.31
12.185	71970	2.26
12.190	71996	2.26
12.195	69826	2.19
12.200	71413	2.24
12.205	71758	2.26
12.210	71120	2.24
12.215	71850	2.26
12.220	69465	2.18
12.225	69149	2.17
12.230	71808	2.26
12.235	68862	2.16
12.240	67780	2.13
12.245	71209	2.24
12.250	69425	2.18
12.255	70981	2.23
12.260	73509	2.31
12.265	70810	2.23
12.270	67676	2.13
12.275	67238	2.11
12.280	65057	2.04
12.285	70547	2.22
12.290	71131	2.24
12.295	71055	2.23
12.300	65390	2.05
12.305	68303	2.15
12.310	64929	2.04
12.315	65954	2.07
12.320	66490	2.09
12.325	66769	2.10
12.330	65781	2.07
12.335	64819	2.04
12.340	65348	2.05
12.345	63576	2.00
12.350	64640	2.03
12.355	67211	2.11
12.360	65413	2.06
12.365	64409	2.02
12.370	64703	2.03
12.375	64308	2.02
12.380	63397	1.99
12.385	65711	2.07
12.390	63749	2.00
12.395	66140	2.08
12.400	65381	2.05
12.405	64165	2.02
12.410	66533	2.09
12.415	64977	2.04
12.420	65904	2.07
12.425	66357	2.09
12.430	62524	1.96
12.435	65737	2.07
12.440	65473	2.06
12.445	67500	2.12
12.450	66286	2.08
12.455	66314	2.08
12.460	70747	2.22
12.465	66717	2.10
12.470	69366	2.18
12.475	64916	2.04
12.480	65507	2.06
12.485	68505	2.15
12.490	65711	2.07
12.495	65337	2.05
12.500	67909	2.13
12.505	63243	1.99
12.510	66689	2.10
12.515	65820	2.07
12.520	64001	2.01
12.525	69005	2.17
12.530	63105	1.98
12.535	69003	2.17
12.540	65142	2.05
12.545	66554	2.09
12.550	67614	2.12
12.555	65421	2.06
12.560	65405	2.06
12.565	62673	1.97
12.570	63916	2.01
12.575	66356	2.09
12.580	63296	1.99
12.585	66068	2.08
12.590	60582	1.90
12.595	62477	1.96
12.600	63337	1.99
12.605	63670	2.00
12.610	63967	2.01
12.615	62223	1.96
12.620	65208	2.05
12.625	62853	1.98
12.630	57254	1.80
12.635	62923	1.98
12.640	64808	2.04
12.645	64460	2.03
12.650	64744	2.03
12.655	64515	2.03
12.660	62845	1.97
12.665	63532	2.00
12.670	63773	2.00
12.675	66355	2.09
12.680	64656	2.03
12.685	61521	1.93
12.690	63197	1.99
12.695	63589	2.00
12.700	64360	2.02
12.705	63364	1.99
12.710	61313	1.93
12.715	63484	2.00
12.720	60288	1.89
12.725	60325	1.90
12.730	64724	2.03
12.735	61954	1.95
12.740	62435	1.96
12.745	64850	2.04
12.750	63081	1.98
12.755	63964	2.01
12.760	67367	2.12
12.765	64508	2.03
12.770	63076	1.98
12.775	60861	1.91
12.780	65873	2.07
12.785	67451	2.12
12.790	63161	1.98
12.795	65723	2.07
12.800	63776	2.00
12.805	64315	2.02
12.810	64754	2.03
12.815	66362	2.09
12.820	64178	2.02
12.825	61876	1.94
12.830	61863	1.94
12.835	64690	2.03
12.840	60635	1.91
12.845	67563	2.12
12.850	63630	2.00
12.855	63743	2.00
12.860	64116	2.01
12.865	59884	1.88
12.870	66142	2.08
12.875	63947	2.01
12.880	60589	1.90
12.885	63457	1.99
12.890	61963	1.95
12.895	63164	1.99
12.900	62736	1.97
12.905	62598	1.97
12.910	64430	2.02
12.915	61898	1.95
12.920	64091	2.01
12.925	66146	2.08
12.930	63228	1.99
12.935	62373	1.96
12.940	64116	2.01
12.945	64020	2.01
12.950	64525	2.03
12.955	62128	1.95
12.960	63754	2.00
12.965	60078	1.89
12.970	63941	2.01
12.975	62468	1.96
12.980	63014	1.98
12.985	65267	2.05
12.990	62405	1.96
12.995	65710	2.07
13.000	63534	2.00
13.005	60507	1.90
13.010	62531	1.97
13.015	64218	2.02
13.020	62077	1.95
13.025	63894	2.01
13.030	61217	1.92
13.035	63274	1.99
13.040	63467	1.99
13.045	61925	1.95
13.050	63290	1.99
13.055	62737	1.97
13.060	60554	1.90
13.065	62539	1.97
13.070	60853	1.91
13.075	65585	2.06
13.080	62862	1.98
13.085	60058	1.89
13.090	62209	1.95
13.095	63290	1.99
13.100	63696	2.00
13.105	62531	1.97
13.110	62350	1.96
13.115	64365	2.02
13.120	63538	2.00
13.125	62836	1.97
13.130	59980	1.88
13.135	62570	1.97
13.140	62163	1.95
13.145	61704	1.94
13.150	61139	1.92
13.155	64466	2.03
13.160	63024	1.98
13.165	61544	1.93
13.170	62522	1.96
13.175	58941	1.85
13.180	63996	2.01
13.185	59393	1.87
13.190	59439	1.87
13.195	62385	1.96
13.200	60265	1.89
13.205	58737	1.85
13.210	62077	1.95
13.215	60707	1.91
13.220	61193	1.92
13.225	61709	1.94
13.230	63382	1.99
13.235	61711	1.94
13.240	60297	1.89
13.245	62848	1.98
13.250	59984	1.89
13.255	65322	2.05
13.260	63143	1.98
13.265	64512	2.03
13.270	61424	1.93
13.275	61460	1.93
13.280	64689	2.03
13.285	60940	1.92
13.290	62831	1.97
13.295	64085	2.01
13.300	60556	1.90
13.305	64594	2.03
13.310	61922	1.95
13.315	60023	1.89
13.320	62872	1.98
13.325	60043	1.89
13.330	65871	2.07
13.335	62708	1.97
13.340	61571	1.93
13.345	65468	2.06
13.350	60361	1.90
13.355	67872	2.13
13.360	60363	1.90
13.365	60595	1.90
13.370	61568	1.93
13.375	60482	1.90
13.380	59484	1.87
13.385	65428	2.06
13.390	61870	1.94
13.395	64757	2.04
13.400	64263	2.02
13.405	59598	1.87
13.410	59632	1.87
13.415	60377	1.90
13.420	62871	1.98
13.425	63210	1.99
13.430	59208	1.86
13.435	61611	1.94
13.440	61125	1.92
13.445	59603	1.87
13.450	59121	1.86
13.455	58552	1.84
13.460	61534	1.93
13.465	61850	1.94
13.470	61462	1.93
13.475	63046	1.98
13.480	57948	1.82
13.485	59653	1.87
13.490	62028	1.95
13.495	57878	1.82
13.500	61285	1.93
13.505	60700	1.91
13.510	59645	1.87
13.515	61436	1.93
13.520	58248	1.83
13.525	64798	2.04
13.530	60684	1.91
13.535	60927	1.91
13.540	63591	2.00
13.545	61552	1.93
13.550	61092	1.92
13.555	62070	1.95
13.560	60586	1.90
13.565	62804	1.97
13.570	60966	1.92
13.575	60313	1.90
13.580	60512	1.90
13.585	61453	1.93
13.590	59349	1.87
13.595	57734	1.81
13.600	56343	1.77
13.605	60140	1.89
13.610	58990	1.85
13.615	62199	1.95
13.620	60334	1.90
13.625	60191	1.89
13.630	59619	1.87
13.635	60479	1.90
13.640	60962	1.92
13.645	62229	1.96
13.650	58675	1.84
13.655	59445	1.87
13.660	63055	1.98
13.665	58482	1.84
13.670	59988	1.89
13.675	59090	1.86
13.680	60644	1.91
13.685	62387	1.96
13.690	60889	1.91
13.695	62783	1.97
13.700	57010	1.79
13.705	60621	1.91
13.710	60756	1.91
13.715	57920	1.82
13.720	61804	1.94
13.725	57545	1.81
13.730	58889	1.85
13.735	59957	1.88
13.740	60928	1.91
13.745	59631	1.87
13.750	62515	1.96
13.755	61177	1.92
13.760	62074	1.95
13.765	59796	1.88
13.770	62357	1.96
13.775	61676	1.94
13.780	56667	1.78
13.785	62105	1.95
13.790	60716	1.91
13.795	61078	1.92
13.800	60443	1.90
13.805	62252	1.96
13.810	61398	1.93
13.815	61504	1.93
13.820	60286	1.89
13.825	66651	2.09
13.830	65179	2.05
13.835	73632	2.31
13.840	81277	2.55
13.845	90786	2.85
13.850	108207	3.40
13.855	118289	3.72
13.860	134411	4.22
13.865	151311	4.76
13.870	172352	5.42
13.875	199090	6.26
13.880	223290	7.02
13.885	245952	7.73
13.890	272462	8.56
13.895	293577	9.23
13.900	315961	9.93
13.905	341177	10.72
13.910	378995	11.91
13.915	411539	12.93
13.920	447140	14.05
13.925	480531	15.10
13.930	510106	16.03
13.935	530424	16.67
13.940	565763	17.78
13.945	619692	19.47
13.950	647515	20.35
13.955	702282	22.07
13.960	726894	22.84
13.965	770312	24.21
13.970	816501	25.66
13.975	852665	26.80
13.980	899724	28.27
13.985	928847	29.19
13.990	987377	31.03
13.995	1041816	32.74
14.000	1081669	33.99
14.005	1124491	35.34
14.010	1156694	36.35
14.015	1218572	38.30
14.020	1316842	41.38
14.025	1342797	42.20
14.030	1375164	43.22
14.035	1418575	44.58
14.040	1479568	46.50
14.045	1572275	49.41
14.050	1621168	50.95
14.055	1666679	52.38
14.060	1736448	54.57
14.065	1766103	55.50
14.070	1849744	58.13
14.075	1977719	62.15
14.080	1995363	62.71
14.085	2028223	63.74
14.090	2075395	65.22
14.095	2195923	69.01
14.100	2296488	72.17
14.105	2385762	74.98
14.110	2419285	76.03
14.115	2499570	78.55
14.120	2562969	80.54
14.125	2677083	84.13
14.130	2710559	85.18
14.135	2639855	82.96
14.140	2753050	86.52
14.145	2938839	92.36
14.150	3123356	98.16
14.155	3053911	95.97
14.160	3182065	100.00
14.165	2476859	77.84
14.170	830057	26.09
14.175	298100	9.37
14.180	187954	5.91
14.185	159373	5.01
14.190	134553	4.23
14.195	124563	3.91
14.200	116203	3.65
14.205	110661	3.48
14.210	106171	3.34
14.215	99385	3.12
14.220	94211	2.96
14.225	94809	2.98
14.230	91927	2.89
14.235	93502	2.94
14.240	92539	2.91
14.245	96248	3.02
14.250	105590	3.32
14.255	102950	3.24
14.260	106963	3.36
14.265	104869	3.30
14.270	102063	3.21
14.275	102590	3.22
14.280	94303	2.96
14.285	97848	3.07
14.290	91001	2.86
14.295	90277	2.84
14.300	91888	2.89
14.305	94024	2.95
14.310	95833	3.01
14.315	98159	3.08
14.320	97396	3.06
14.325	96375	3.03
14.330	90479	2.84
14.335	91327	2.87
14.340	91641	2.88
14.345	85353	2.68
14.350	83757	2.63
14.355	85633	2.69
14.360	87780	2.76
14.365	90680	2.85
14.370	89658	2.82
14.375	96061	3.02
14.380	93527	2.94
14.385	91480	2.87
14.390	93312	2.93
14.395	91642	2.88
14.400	88770	2.79
14.405	87654	2.75
14.410	79289	2.49
14.415	78922	2.48
14.420	78419	2.46
14.425	77218	2.43
14.430	83842	2.63
14.435	84879	2.67
14.440	84239	2.65
14.445	92198	2.90
14.450	88653	2.79
14.455	90966	2.86
14.460	89679	2.82
14.465	86699	2.72
14.470	88115	2.77
14.475	82571	2.59
14.480	81644	2.57
14.485	75524	2.37
14.490	73972	2.32
14.495	75909	2.39
14.500	80657	2.53
14.505	84342	2.65
14.510	84555	2.66
14.515	81503	2.56
14.520	86127	2.71
14.525	83296	2.62
14.530	87623	2.75
14.535	85680	2.69
14.540	82394	2.59
14.545	82917	2.61
14.550	81253	2.55
14.555	79770	2.51
14.560	74727	2.35
14.565	75664	2.38
14.570	73953	2.32
14.575	79063	2.48
14.580	77012	2.42
14.585	80491	2.53
14.590	79751	2.51
14.595	82966	2.61
14.600	87396	2.75
14.605	84217	2.65
14.610	82396	2.59
14.615	82040	2.58
14.620	79186	2.49
14.625	80325	2.52
14.630	76481	2.40
14.635	74237	2.33
14.640	70716	2.22
14.645	72343	2.27
14.650	75122	2.36
14.655	79046	2.48
14.660	79188	2.49
14.665	80430	2.53
14.670	79804	2.51
14.675	80372	2.53
14.680	78719	2.47
14.685	78434	2.46
14.690	83378	2.62
14.695	79205	2.49
14.700	78086	2.45
14.705	77834	2.45
14.710	72074	2.27
14.715	72754	2.29
14.720	71304	2.24
14.725	74746	2.35
14.730	79163	2.49
14.735	76679	2.41
14.740	78654	2.47
14.745	77790	2.44
14.750	78652	2.47
14.755	79887	2.51
14.760	78303	2.46
14.765	77725	2.44
14.770	75141	2.36
14.775	75711	2.38
14.780	76378	2.40
14.785	70242	2.21
14.790	73279	2.30
14.795	72123	2.27
14.800	73088	2.30
14.805	73726	2.32
14.810	72213	2.27
14.815	74231	2.33
14.820	77653	2.44
14.825	78688	2.47
14.830	75290	2.37
14.835	80162	2.52
14.840	76802	2.41
14.845	78100	2.45
14.850	74862	2.35
14.855	73764	2.32
14.860	75694	2.38
14.865	73988	2.33
14.870	74686	2.35
14.875	72358	2.27
14.880	72321	2.27
14.885	73112	2.30
14.890	72725	2.29
14.895	72833	2.29
14.900	74839	2.35
14.905	74194	2.33
14.910	76666	2.41
14.915	75511	2.37
14.920	76006	2.39
14.925	79493	2.50
14.930	74700	2.35
14.935	74676	2.35
14.940	76906	2.42
14.945	73039	2.30
14.950	72558	2.28
14.955	72549	2.28
14.960	74486	2.34
14.965	71872	2.26
14.970	72950	2.29
14.975	73197	2.30
14.980	72898	2.29
14.985	73739	2.32
14.990	74173	2.33
14.995	71964	2.26
15.000	73093	2.30
15.005	73470	2.31
15.010	73115	2.30
15.015	74605	2.34
15.020	72889	2.29
15.025	75776	2.38
15.030	72821	2.29
15.035	73052	2.30
15.040	72054	2.26
15.045	70249	2.21
15.050	73988	2.33
15.055	68076	2.14
15.060	74899	2.35
15.065	72385	2.27
15.070	71541	2.25
15.075	73745	2.32
15.080	76518	2.40
15.085	71934	2.26
15.090	70422	2.21
15.095	71675	2.25
15.100	69642	2.19
15.105	75329	2.37
15.110	68942	2.17
15.115	72336	2.27
15.120	71299	2.24
15.125	71389	2.24
15.130	70810	2.23
15.135	72288	2.27
15.140	70796	2.22
15.145	68030	2.14
15.150	72901	2.29
15.155	70087	2.20
15.160	70426	2.21
15.165	68316	2.15
15.170	68816	2.16
15.175	72595	2.28
15.180	73348	2.31
15.185	69785	2.19
15.190	74597	2.34
15.195	70898	2.23
15.200	68429	2.15
15.205	74486	2.34
15.210	71516	2.25
15.215	72078	2.27
15.220	72578	2.28
15.225	70442	2.21
15.230	74718	2.35
15.235	68534	2.15
15.240	68873	2.16
15.245	75770	2.38
15.250	71639	2.25
15.255	71716	2.25
15.260	71995	2.26
15.265	74322	2.34
15.270	69773	2.19
15.275	69811	2.19
15.280	71524	2.25
15.285	70329	2.21
15.290	68660	2.16
15.295	71634	2.25
15.300	71250	2.24
15.305	68369	2.15
15.310	71107	2.23
15.315	72681	2.28
15.320	71388	2.24
15.325	72041	2.26
15.330	68189	2.14
15.335	70364	2.21
15.340	68199	2.14
15.345	67040	2.11
15.350	71424	2.24
15.355	71057	2.23
15.360	71066	2.23
15.365	71689	2.25
15.370	69148	2.17
15.375	70819	2.23
15.380	67609	2.12
15.385	71577	2.25
15.390	71100	2.23
15.395	66932	2.10
15.400	66607	2.09
15.405	69156	2.17
15.410	69109	2.17
15.415	68741	2.16
15.420	67749	2.13
15.425	69916	2.20
15.430	69913	2.20
15.435	68400	2.15
15.440	70368	2.21
15.445	67213	2.11
15.450	70143	2.20
15.455	70882	2.23
15.460	70143	2.20
15.465	70050	2.20
15.470	69324	2.18
15.475	70341	2.21
15.480	71862	2.26
15.485	68357	2.15
15.490	69503	2.18
15.495	69544	2.19
15.500	74834	2.35
15.505	72984	2.29
15.510	68910	2.17
15.515	69530	2.19
15.520	71534	2.25
15.525	67081	2.11
15.530	69094	2.17
15.535	68972	2.17
15.540	70159	2.20
15.545	67517	2.12
15.550	68050	2.14
15.555	71795	2.26
15.560	69274	2.18
15.565	68162	2.14
15.570	73531	2.31
15.575	66963	2.10
15.580	65438	2.06
15.585	68519	2.15
15.590	69179	2.17
15.595	69608	2.19
15.600	68358	2.15
15.605	67829	2.13
15.610	70925	2.23
15.615	71432	2.24
15.620	68599	2.16
15.625	66047	2.08
15.630	67215	2.11
15.635	69737	2.19
15.640	66902	2.10
15.645	67554	2.12
15.650	68948	2.17
15.655	69257	2.18
15.660	71916	2.26
15.665	68176	2.14
15.670	68188	2.14
15.675	67112	2.11
15.680	66726	2.10
15.685	70252	2.21
15.690	66189	2.08
15.695	69514	2.18
15.700	69831	2.19
15.705	68019	2.14
15.710	66339	2.08
15.715	67814	2.13
15.720	66847	2.10
15.725	68946	2.17
15.730	67460	2.12
15.735	65426	2.06
15.740	66753	2.10
15.745	67215	2.11
15.750	67352	2.12
15.755	68853	2.16
15.760	66267	2.08
15.765	65438	2.06
15.770	66872	2.10
15.775	66220	2.08
15.780	64442	2.03
15.785	68443	2.15
15.790	65984	2.07
15.795	68095	2.14
15.800	66613	2.09
15.805	63350	1.99
15.810	69155	2.17
15.815	67151	2.11
15.820	66694	2.10
15.825	66579	2.09
15.830	63895	2.01
15.835	66658	2.09
15.840	63979	2.01
15.845	65638	2.06
15.850	67834	2.13
15.855	66123	2.08
15.860	64870	2.04
15.865	67373	2.12
15.870	64060	2.01
15.875	67892	2.13
15.880	67202	2.11
15.885	67327	2.12
15.890	68625	2.16
15.895	62037	1.95
15.900	66734	2.10
15.905	66549	2.09
15.910	65970	2.07
15.915	63445	1.99
15.920	67046	2.11
15.925	65189	2.05
15.930	68252	2.14
15.935	65322	2.05
15.940	65321	2.05
15.945	65853	2.07
15.950	64591	2.03
15.955	70874	2.23
15.960	64723	2.03
15.965	70047	2.20
15.970	66034	2.08
15.975	65160	2.05
15.980	63807	2.01
15.985	65866	2.07
15.990	64711	2.03
15.995	64590	2.03
16.000	63421	1.99
16.005	63235	1.99
16.010	62937	1.98
16.015	64199	2.02
16.020	64242	2.02
16.025	64413	2.02
16.030	67022	2.11
16.035	65905	2.07
16.040	63946	2.01
16.045	67372	2.12
16.050	66733	2.10
16.055	65260	2.05
16.060	65086	2.05
16.065	61315	1.93
16.070	65249	2.05
16.075	64443	2.03
16.080	61285	1.93
16.085	64164	2.02
16.090	65530	2.06
16.095	64047	2.01
16.100	66235	2.08
16.105	65004	2.04
16.110	66076	2.08
16.115	64857	2.04
16.120	61384	1.93
16.125	65284	2.05
16.130	66030	2.08
16.135	60702	1.91
16.140	63038	1.98
16.145	63991	2.01
16.150	63282	1.99
16.155	65782	2.07
16.160	65770	2.07
16.165	64826	2.04
16.170	63248	1.99
16.175	66961	2.10
16.180	60943	1.92
16.185	63967	2.01
16.190	65474	2.06
16.195	63001	1.98
16.200	64179	2.02
16.205	63476	1.99
16.210	63772	2.00
16.215	62598	1.97
16.220	60494	1.90
16.225	62915	1.98
16.230	66784	2.10
16.235	64527	2.03
16.240	61622	1.94
16.245	62074	1.95
16.250	67618	2.12
16.255	65485	2.06
16.260	60089	1.89
16.265	63431	1.99
16.270	62921	1.98
16.275	63972	2.01
16.280	63669	2.00
16.285	64023	2.01
16.290	65070	2.04
16.295	62499	1.96
16.300	63047	1.98
16.305	66066	2.08
16.310	65016	2.04
16.315	60721	1.91
16.320	64553	2.03
16.325	60392	1.90
16.330	64194	2.02
16.335	65683	2.06
16.340	63508	2.00
16.345	64095	2.01
16.350	63188	1.99
16.355	64597	2.03
16.360	63443	1.99
16.365	62683	1.97
16.370	64857	2.04
16.375	61366	1.93
16.380	63101	1.98
16.385	63132	1.98
16.390	60528	1.90
16.395	64826	2.04
16.400	62037	1.95
16.405	59725	1.88
16.410	60169	1.89
16.415	62896	1.98
16.420	62423	1.96
16.425	59421	1.87
16.430	63841	2.01
16.435	61803	1.94
16.440	62314	1.96
16.445	63128	1.98
16.450	61384	1.93
16.455	63134	1.98
16.460	64251	2.02
16.465	62065	1.95
16.470	62309	1.96
16.475	61786	1.94
16.480	61628	1.94
16.485	62307	1.96
16.490	63846	2.01
16.495	60821	1.91
16.500	62931	1.98
16.505	59969	1.88
16.510	61360	1.93
16.515	65654	2.06
16.520	62712	1.97
16.525	64732	2.03
16.530	64683	2.03
16.535	61142	1.92
16.540	64335	2.02
16.545	62323	1.96
16.550	61308	1.93
16.555	61185	1.92
16.560	58896	1.85
16.565	64244	2.02
16.570	63557	2.00
16.575	60630	1.91
16.580	66711	2.10
16.585	59466	1.87
16.590	62456	1.96
16.595	64940	2.04
16.600	61240	1.92
16.605	64915	2.04
16.610	59553	1.87
16.615	59834	1.88
16.620	60691	1.91
16.625	58220	1.83
16.630	62848	1.98
16.635	61775	1.94
16.640	61942	1.95
16.645	66645	2.09
16.650	60182	1.89
16.655	63321	1.99
16.660	61904	1.95
16.665	61729	1.94
16.670	59643	1.87
16.675	58496	1.84
16.680	63133	1.98
16.685	63483	2.00
16.690	59765	1.88
16.695	61278	1.93
16.700	61814	1.94
16.705	61296	1.93
16.710	62744	1.97
16.715	62359	1.96
16.720	63138	1.98
16.725	64140	2.02
16.730	61628	1.94
16.735	62694	1.97
16.740	59622	1.87
16.745	56327	1.77
16.750	61222	1.92
16.755	59170	1.86
16.760	61672	1.94
16.765	62604	1.97
16.770	62003	1.95
16.775	60812	1.91
16.780	59210	1.86
16.785	62495	1.96
16.790	62227	1.96
16.795	58391	1.84
16.800	60987	1.92
16.805	63409	1.99
16.810	61009	1.92
16.815	62580	1.97
16.820	59723	1.88
16.825	58747	1.85
16.830	65177	2.05
16.835	58753	1.85
16.840	60816	1.91
16.845	60517	1.90
16.850	64369	2.02
16.855	61783	1.94
16.860	62976	1.98
16.865	61191	1.92
16.870	63061	1.98
16.875	57970	1.82
16.880	61173	1.92
16.885	61194	1.92
16.890	57908	1.82
16.895	62009	1.95
16.900	61572	1.93
16.905	61626	1.94
16.910	59970	1.88
16.915	60502	1.90
16.920	59284	1.86
16.925	59281	1.86
16.930	60476	1.90
16.935	60530	1.90
16.940	62169	1.95
16.945	60322	1.90
16.950	62413	1.96
16.955	62027	1.95
16.960	62713	1.97
16.965	60363	1.90
16.970	62908	1.98
16.975	61330	1.93
16.980	62988	1.98
16.985	64096	2.01
16.990	58544	1.84
16.995	62044	1.95
17.000	58275	1.83
17.005	61621	1.94
17.010	64951	2.04
17.015	56778	1.78
17.020	59658	1.87
17.025	57524	1.81
17.030	59997	1.89
17.035	58722	1.85
17.040	60231	1.89
17.045	63012	1.98
17.050	61435	1.93
17.055	57886	1.82
17.060	61352	1.93
17.065	57068	1.79
17.070	61279	1.93
17.075	59807	1.88
17.080	64437	2.03
17.085	61007	1.92
17.090	58966	1.85
17.095	59551	1.87
17.100	60726	1.91
17.105	61004	1.92
17.110	59590	1.87
17.115	62914	1.98
17.120	59530	1.87
17.125	60176	1.89
17.130	58244	1.83
17.135	60581	1.90
17.140	58565	1.84
17.145	61675	1.94
17.150	60121	1.89
17.155	60714	1.91
17.160	61752	1.94
17.165	62072	1.95
17.170	61387	1.93
17.175	63063	1.98
17.180	61158	1.92
17.185	61423	1.93
17.190	59730	1.88
17.195	61949	1.95
17.200	61203	1.92
17.205	61621	1.94
17.210	58382	1.83
17.215	66460	2.09
17.220	56961	1.79
17.225	60840	1.91
17.230	66595	2.09
17.235	59649	1.87
17.240	62658	1.97
17.245	59525	1.87
17.250	57799	1.82
17.255	62290	1.96
17.260	59577	1.87
17.265	62169	1.95
17.270	59835	1.88
17.275	57782	1.82
17.280	58402	1.84
17.285	61370	1.93
17.290	61031	1.92
17.295	57755	1.82
17.300	60363	1.90
17.305	61040	1.92
17.310	61484	1.93
17.315	61209	1.92
17.320	62940	1.98
17.325	60115	1.89
17.330	63501	2.00
17.335	58893	1.85
17.340	59952	1.88
17.345	57216	1.80
17.350	57152	1.80
17.355	61424	1.93
17.360	60835	1.91
17.365	59596	1.87
17.370	62031	1.95
17.375	58266	1.83
17.380	58140	1.83
17.385	57247	1.80
17.390	58546	1.84
17.395	57149	1.80
17.400	61028	1.92
17.405	59879	1.88
17.410	59384	1.87
17.415	61508	1.93
17.420	63142	1.98
17.425	63993	2.01
17.430	63732	2.00
17.435	64837	2.04
17.440	64429	2.02
17.445	68027	2.14
17.450	67839	2.13
17.455	67715	2.13
17.460	66145	2.08
17.465	66220	2.08
17.470	65931	2.07
17.475	63106	1.98
17.480	62563	1.97
17.485	66423	2.09
17.490	64525	2.03
17.495	63417	1.99
17.500	66450	2.09
17.505	64635	2.03
17.510	65234	2.05
17.515	62819	1.97
17.520	64954	2.04
17.525	63244	1.99
17.530	63267	1.99
17.535	65440	2.06
17.540	65157	2.05
17.545	66114	2.08
17.550	65097	2.05
17.555	64365	2.02
17.560	65062	2.04
17.565	62130	1.95
17.570	63319	1.99
17.575	62094	1.95
17.580	61978	1.95
17.585	64644	2.03
17.590	65157	2.05
17.595	64405	2.02
17.600	64219	2.02
17.605	63395	1.99
17.610	64664	2.03
17.615	65137	2.05
17.620	62496	1.96
17.625	63130	1.98
17.630	58002	1.82
17.635	64273	2.02
17.640	61117	1.92
17.645	63249	1.99
17.650	61728	1.94
17.655	57809	1.82
17.660	61098	1.92
17.665	64214	2.02
17.670	61392	1.93
17.675	62840	1.97
17.680	63434	1.99
17.685	62140	1.95
17.690	63714	2.00
17.695	62182	1.95
17.700	65169	2.05
17.705	62453	1.96
17.710	63623	2.00
17.715	62644	1.97
17.720	60284	1.89
17.725	62111	1.95
17.730	61564	1.93
17.735	59284	1.86
17.740	66161	2.08
17.745	61801	1.94
17.750	64604	2.03
17.755	64137	2.02
17.760	62552	1.97
17.765	61270	1.93
17.770	63469	1.99
17.775	58324	1.83
17.780	61642	1.94
17.785	59922	1.88
17.790	64200	2.02
17.795	64377	2.02
17.800	61251	1.92
17.805	63515	2.00
17.810	59777	1.88
17.815	61499	1.93
17.820	61505	1.93
17.825	58737	1.85
17.830	62341	1.96
17.835	61767	1.94
17.840	57256	1.80
17.845	61016	1.92
17.850	60794	1.91
17.855	59461	1.87
17.860	60214	1.89
17.865	61977	1.95
17.870	59931	1.88
17.875	64313	2.02
17.880	60488	1.90
17.885	63676	2.00
17.890	58883	1.85
17.895	63420	1.99
17.900	61548	1.93
17.905	60349	1.90
17.910	63571	2.00
17.915	59679	1.88
17.920	63835	2.01
17.925	63289	1.99
17.930	61443	1.93
17.935	62827	1.97
17.940	59500	1.87
17.945	60784	1.91
17.950	62254	1.96
17.955	59027	1.85
17.960	61590	1.94
17.965	57493	1.81
17.970	61117	1.92
17.975	59541	1.87
17.980	60491	1.90
17.985	60370	1.90
17.990	62888	1.98
17.995	62905	1.98
18.000	60093	1.89
18.005	59335	1.86
18.010	62166	1.95
18.015	59834	1.88
18.020	61692	1.94
18.025	59460	1.87
18.030	60298	1.89
18.035	60728	1.91
18.040	63823	2.01
18.045	60025	1.89
18.050	60914	1.91
18.055	61446	1.93
18.060	59281	1.86
18.065	59319	1.86
18.070	60582	1.90
18.075	61127	1.92
18.080	60010	1.89
18.085	61502	1.93
18.090	60547	1.90
18.095	59629	1.87
18.100	60236	1.89
18.105	62363	1.96
18.110	57183	1.80
18.115	61984	1.95
18.120	53330	1.68
18.125	60355	1.90
18.130	62074	1.95
18.135	58024	1.82
18.140	61821	1.94
18.145	60376	1.90
18.150	59976	1.88
18.155	61628	1.94
18.160	58810	1.85
18.165	58150	1.83
18.170	62173	1.95
18.175	60565	1.90
18.180	60783	1.91
18.185	58731	1.85
18.190	60406	1.90
18.195	60408	1.90
18.200	57348	1.80
18.205	57790	1.82
18.210	57458	1.81
18.215	59123	1.86
18.220	60165	1.89
18.225	61344	1.93
18.230	57565	1.81
18.235	57696	1.81
18.240	58213	1.83
18.245	60168	1.89
18.250	58563	1.84
18.255	61047	1.92
18.260	60527	1.90
18.265	61277	1.93
18.270	59022	1.85
18.275	57434	1.80
18.280	58829	1.85
18.285	59660	1.87
18.290	60436	1.90
18.295	57109	1.79
18.300	57488	1.81
18.305	57372	1.80
18.310	59590	1.87
18.315	57356	1.80
18.320	59500	1.87
18.325	61547	1.93
18.330	57327	1.80
18.335	59324	1.86
18.340	57212	1.80
18.345	60283	1.89
18.350	57996	1.82
18.355	58233	1.83
18.360	60766	1.91
18.365	57808	1.82
18.370	59738	1.88
18.375	60373	1.90
18.380	57945	1.82
18.385	59106	1.86
18.390	58083	1.83
18.395	59053	1.86
18.400	61054	1.92
18.405	56777	1.78
18.410	59841	1.88
18.415	59636	1.87
18.420	57959	1.82
18.425	57067	1.79
18.430	59520	1.87
18.435	57882	1.82
18.440	58992	1.85
18.445	57366	1.80
18.450	57713	1.81
18.455	54026	1.70
18.460	59110	1.86
18.465	58821	1.85
18.470	56665	1.78
18.475	60173	1.89
18.480	55679	1.75
18.485	58454	1.84
18.490	59576	1.87
18.495	57564	1.81
18.500	57440	1.81
18.505	59776	1.88
18.510	57539	1.81
18.515	59854	1.88
18.520	58717	1.85
18.525	58103	1.83
18.530	56845	1.79
18.535	56865	1.79
18.540	56947	1.79
18.545	57456	1.81
18.550	57842	1.82
18.555	57174	1.80
18.560	58316	1.83
18.565	59031	1.86
18.570	57444	1.81
18.575	59462	1.87
18.580	55891	1.76
18.585	55402	1.74
18.590	55449	1.74
18.595	56578	1.78
18.600	57052	1.79
18.605	58616	1.84
18.610	57598	1.81
18.615	56741	1.78
18.620	58245	1.83
18.625	55460	1.74
18.630	57770	1.82
18.635	56755	1.78
18.640	56634	1.78
18.645	59447	1.87
18.650	52918	1.66
18.655	60228	1.89
18.660	57943	1.82
18.665	53267	1.67
18.670	59172	1.86
18.675	55799	1.75
18.680	57475	1.81
18.685	60297	1.89
18.690	56919	1.79
18.695	60527	1.90
18.700	54012	1.70
18.705	57746	1.81
18.710	58731	1.85
18.715	56716	1.78
18.720	59207	1.86
18.725	58240	1.83
18.730	56873	1.79
18.735	57901	1.82
18.740	55740	1.75
18.745	56621	1.78
18.750	57827	1.82
18.755	55031	1.73
18.760	56583	1.78
18.765	57882	1.82
18.770	57838	1.82
18.775	54456	1.71
18.780	58261	1.83
18.785	58062	1.82
18.790	53672	1.69
18.795	58745	1.85
18.800	58224	1.83
18.805	54547	1.71
18.810	57782	1.82
18.815	57424	1.80
18.820	55782	1.75
18.825	56363	1.77
18.830	56549	1.78
18.835	56541	1.78
18.840	54231	1.70
18.845	56876	1.79
18.850	53942	1.70
18.855	55853	1.76
18.860	59346	1.87
18.865	59761	1.88
18.870	56700	1.78
18.875	55448	1.74
18.880	55215	1.74
18.885	54878	1.72
18.890	54231	1.70
18.895	54461	1.71
18.900	57708	1.81
18.905	56728	1.78
18.910	57218	1.80
18.915	56137	1.76
18.920	57175	1.80
18.925	55437	1.74
18.930	55733	1.75
18.935	55842	1.75
18.940	58161	1.83
18.945	56968	1.79
18.950	57132	1.80
18.955	56843	1.79
18.960	55201	1.73
18.965	57865	1.82
18.970	58485	1.84
18.975	55992	1.76
18.980	57515	1.81
18.985	55299	1.74
18.990	59553	1.87
18.995	54437	1.71
19.000	53707	1.69
19.005	56869	1.79
19.010	55830	1.75
19.015	54861	1.72
19.020	56179	1.77
19.025	55051	1.73
19.030	57160	1.80
19.035	57986	1.82
19.040	53520	1.68
19.045	56414	1.77
19.050	54293	1.71
19.055	57431	1.80
19.060	55901	1.76
19.065	56904	1.79
19.070	55276	1.74
19.075	53819	1.69
19.080	57614	1.81
19.085	59494	1.87
19.090	55661	1.75
19.095	57683	1.81
19.100	54416	1.71
19.105	56618	1.78
19.110	57364	1.80
19.115	54659	1.72
19.120	58858	1.85
19.125	53856	1.69
19.130	55803	1.75
19.135	56360	1.77
19.140	55452	1.74
19.145	56380	1.77
19.150	58036	1.82
19.155	54655	1.72
19.160	56406	1.77
19.165	57838	1.82
19.170	55399	1.74
19.175	56869	1.79
19.180	56286	1.77
19.185	56850	1.79
19.190	56967	1.79
19.195	54190	1.70
19.200	55443	1.74
19.205	56145	1.76
19.210	53273	1.67
19.215	55463	1.74
19.220	55147	1.73
19.225	57795	1.82
19.230	56042	1.76
19.235	57361	1.80
19.240	53183	1.67
19.245	52292	1.64
19.250	61225	1.92
19.255	54540	1.71
19.260	55561	1.75
19.265	54643	1.72
19.270	52902	1.66
19.275	55377	1.74
19.280	53913	1.69
19.285	54780	1.72
19.290	56832	1.79
19.295	56269	1.77
19.300	55362	1.74
19.305	53049	1.67
19.310	52645	1.65
19.315	53752	1.69
19.320	55098	1.73
19.325	53624	1.69
19.330	54666	1.72
19.335	52256	1.64
19.340	55036	1.73
19.345	57777	1.82
19.350	56371	1.77
19.355	54346	1.71
19.360	53958	1.70
19.365	55642	1.75
19.370	56967	1.79
19.375	52189	1.64
19.380	57073	1.79
19.385	56746	1.78
19.390	52455	1.65
19.395	55706	1.75
19.400	54103	1.70
19.405	55706	1.75
19.410	56744	1.78
19.415	54862	1.72
19.420	54735	1.72
19.425	53993	1.70
19.430	54207	1.70
19.435	53684	1.69
19.440	53465	1.68
19.445	53067	1.67
19.450	55030	1.73
19.455	52699	1.66
19.460	56568	1.78
19.465	55951	1.76
19.470	51999	1.63
19.475	55392	1.74
19.480	52269	1.64
19.485	55760	1.75
19.490	57125	1.80
19.495	55699	1.75
19.500	53886	1.69
19.505	55780	1.75
19.510	50606	1.59
19.515	52846	1.66
19.520	54297	1.71
19.525	54746	1.72
19.530	54613	1.72
19.535	54253	1.70
19.540	54305	1.71
19.545	53455	1.68
19.550	55240	1.74
19.555	53169	1.67
19.560	56784	1.78
19.565	54763	1.72
19.570	51709	1.63
19.575	56543	1.78
19.580	53621	1.69
19.585	53651	1.69
19.590	54835	1.72
19.595	54940	1.73
19.600	58470	1.84
19.605	54049	1.70
19.610	53449	1.68
19.615	53543	1.68
19.620	54056	1.70
19.625	55950	1.76
19.630	54433	1.71
19.635	52911	1.66
19.640	54897	1.73
19.645	53529	1.68
19.650	54125	1.70
19.655	54448	1.71
19.660	53479	1.68
19.665	53915	1.69
19.670	55363	1.74
19.675	53975	1.70
19.680	55411	1.74
19.685	55593	1.75
19.690	55955	1.76
19.695	52359	1.65
19.700	49920	1.57
19.705	54585	1.72
19.710	51366	1.61
19.715	55084	1.73
19.720	54472	1.71
19.725	53311	1.68
19.730	54082	1.70
19.735	54301	1.71
19.740	55845	1.75
19.745	55263	1.74
19.750	49220	1.55
19.755	55993	1.76
19.760	54283	1.71
19.765	52615	1.65
19.770	57251	1.80
19.775	52655	1.65
19.780	52957	1.66
19.785	55413	1.74
19.790	51802	1.63
19.795	50202	1.58
19.800	51152	1.61
19.805	56766	1.78
19.810	56450	1.77
19.815	54346	1.71
19.820	52857	1.66
19.825	52541	1.65
19.830	53700	1.69
19.835	52889	1.66
19.840	50447	1.59
19.845	54877	1.72
19.850	53849	1.69
19.855	52577	1.65
19.860	55316	1.74
19.865	54134	1.70
19.870	52547	1.65
19.875	54742	1.72
19.880	51264	1.61
19.885	52140	1.64
19.890	54201	1.70
19.895	53687	1.69
19.900	53593	1.68
19.905	54397	1.71
19.910	54514	1.71
19.915	52128	1.64
19.920	54471	1.71
19.925	54413	1.71
19.930	53100	1.67
19.935	53452	1.68
19.940	54510	1.71
19.945	52241	1.64
19.950	53598	1.68
19.955	50229	1.58
19.960	55189	1.73
19.965	53462	1.68
19.970	54790	1.72
19.975	53862	1.69
19.980	52957	1.66
19.985	53620	1.69
19.990	54589	1.72
19.995	52100	1.64
20.000	53137	1.67
20.005	55782	1.75
20.010	50398	1.58
20.015	54090	1.70
20.020	53245	1.67
20.025	51189	1.61
20.030	54183	1.70
20.035	52678	1.66
20.040	52869	1.66
20.045	52766	1.66
20.050	51998	1.63
20.055	56278	1.77
20.060	52928	1.66
20.065	52497	1.65
20.070	52627	1.65
20.075	52788	1.66
20.080	53261	1.67
20.085	52527	1.65
20.090	54857	1.72
20.095	50943	1.60
20.100	50721	1.59
20.105	53637	1.69
20.110	53606	1.68
20.115	57396	1.80
20.120	53366	1.68
20.125	48836	1.53
20.130	51955	1.63
20.135	51824	1.63
20.140	51512	1.62
20.145	53967	1.70
20.150	51851	1.63
20.155	52984	1.67
20.160	52865	1.66
20.165	50568	1.59
20.170	54228	1.70
20.175	52171	1.64
20.180	53295	1.67
20.185	52995	1.67
20.190	50756	1.60
20.195	53170	1.67
20.200	54133	1.70
20.205	53913	1.69
20.210	54225	1.70
20.215	49425	1.55
20.220	52601	1.65
20.225	51954	1.63
20.230	54748	1.72
20.235	52629	1.65
20.240	50880	1.60
20.245	51845	1.63
20.250	53096	1.67
20.255	53472	1.68
20.260	50869	1.60
20.265	52068	1.64
20.270	51635	1.62
20.275	53132	1.67
20.280	53917	1.69
20.285	51344	1.61
20.290	51622	1.62
20.295	53418	1.68
20.300	52995	1.67
20.305	51381	1.61
20.310	50268	1.58
20.315	52036	1.64
20.320	52149	1.64
20.325	49976	1.57
20.330	50024	1.57
20.335	51907	1.63
20.340	51013	1.60
20.345	51239	1.61
20.350	49316	1.55
20.355	49704	1.56
20.360	51730	1.63
20.365	51314	1.61
20.370	49456	1.55
20.375	52771	1.66
20.380	49098	1.54
20.385	52634	1.65
20.390	52995	1.67
20.395	49566	1.56
20.400	50173	1.58
20.405	49934	1.57
20.410	53399	1.68
20.415	50650	1.59
20.420	51037	1.60
20.425	52064	1.64
20.430	53322	1.68
20.435	52010	1.63
20.440	54090	1.70
20.445	51034	1.60
20.450	52200	1.64
20.455	50701	1.59
20.460	52568	1.65
20.465	53280	1.67
20.470	49728	1.56
20.475	55278	1.74
20.480	50072	1.57
20.485	49573	1.56
20.490	53106	1.67
20.495	50980	1.60
20.500	49241	1.55
20.505	50848	1.60
20.510	51182	1.61
20.515	54039	1.70
20.520	53963	1.70
20.525	53152	1.67
20.530	50829	1.60
20.535	50091	1.57
20.540	51282	1.61
20.545	52925	1.66
20.550	50406	1.58
20.555	50848	1.60
20.560	49475	1.55
20.565	50474	1.59
20.570	52967	1.66
20.575	48951	1.54
20.580	53777	1.69
20.585	49963	1.57
20.590	52597	1.65
20.595	51799	1.63
20.600	52078	1.64
20.605	55283	1.74
20.610	54474	1.71
20.615	50371	1.58
20.620	52655	1.65
20.625	49469	1.55
20.630	50284	1.58
20.635	52505	1.65
20.640	53927	1.69
20.645	52468	1.65
20.650	50265	1.58
20.655	52877	1.66
20.660	50682	1.59
20.665	51893	1.63
20.670	49299	1.55
20.675	51064	1.60
20.680	49944	1.57
20.685	51698	1.62
20.690	48668	1.53
20.695	52679	1.66
20.700	49332	1.55
20.705	54594	1.72
20.710	53649	1.69
20.715	52574	1.65
20.720	53300	1.68
20.725	49672	1.56
20.730	48419	1.52
20.735	51249	1.61
20.740	51903	1.63
20.745	50102	1.57
20.750	51704	1.62
20.755	50170	1.58
20.760	50918	1.60
20.765	51259	1.61
20.770	50726	1.59
20.775	51922	1.63
20.780	48108	1.51
20.785	50197	1.58
20.790	53251	1.67
20.795	48967	1.54
20.800	54984	1.73
20.805	50710	1.59
20.810	52875	1.66
20.815	52782	1.66
20.820	50377	1.58
20.825	54134	1.70
20.830	49739	1.56
20.835	50443	1.59
20.840	50815	1.60
20.845	51443	1.62
20.850	50914	1.60
20.855	52307	1.64
20.860	48132	1.51
20.865	50624	1.59
20.870	48753	1.53
20.875	51648	1.62
20.880	50654	1.59
20.885	49539	1.56
20.890	52539	1.65
20.895	52763	1.66
20.900	53210	1.67
20.905	52098	1.64
20.910	50496	1.59
20.915	48854	1.54
20.920	51963	1.63
20.925	48653	1.53
20.930	51835	1.63
20.935	51140	1.61
20.940	54791	1.72
20.945	53162	1.67
20.950	49282	1.55
20.955	52248	1.64
20.960	50947	1.60
20.965	49204	1.55
20.970	52562	1.65
20.975	49631	1.56
20.980	47871	1.50
20.985	51017	1.60
20.990	50306	1.58
20.995	51069	1.60
21.000	52120	1.64
21.005	52723	1.66
21.010	49514	1.56
21.015	48248	1.52
21.020	52219	1.64
21.025	50715	1.59
21.030	48693	1.53
21.035	49747	1.56
21.040	49799	1.56
21.045	52027	1.64
21.050	54168	1.70
21.055	48287	1.52
21.060	53417	1.68
21.065	50087	1.57
21.070	48680	1.53
21.075	52169	1.64
21.080	50803	1.60
21.085	54585	1.72
21.090	46202	1.45
21.095	51467	1.62
21.100	53622	1.69
21.105	49845	1.57
21.110	50099	1.57
21.115	51100	1.61
21.120	48783	1.53
21.125	50667	1.59
21.130	44367	1.39
21.135	51328	1.61
21.140	49407	1.55
21.145	48941	1.54
21.150	50827	1.60
21.155	50326	1.58
21.160	49982	1.57
21.165	51438	1.62
21.170	51760	1.63
21.175	52701	1.66
21.180	51747	1.63
21.185	51241	1.61
21.190	49288	1.55
21.195	52191	1.64
21.200	50532	1.59
21.205	50894	1.60
21.210	51543	1.62
21.215	51201	1.61
21.220	49854	1.57
21.225	48655	1.53
21.230	48899	1.54
21.235	49127	1.54
21.240	49085	1.54
21.245	50618	1.59
21.250	49456	1.55
21.255	49889	1.57
21.260	50409	1.58
21.265	46544	1.46
21.270	51245	1.61
21.275	49471	1.55
21.280	51417	1.62
21.285	51326	1.61
21.290	49356	1.55
21.295	50260	1.58
21.300	51561	1.62
21.305	52470	1.65
21.310	52553	1.65
21.315	48853	1.54
21.320	48171	1.51
21.325	46780	1.47
21.330	47308	1.49
21.335	51693	1.62
21.340	50925	1.60
21.345	51188	1.61
21.350	51182	1.61
21.355	48813	1.53
21.360	50571	1.59
21.365	48470	1.52
21.370	52925	1.66
21.375	48048	1.51
21.380	50345	1.58
21.385	52165	1.64
21.390	50599	1.59
21.395	51719	1.63
21.400	52072	1.64
21.405	46866	1.47
21.410	52441	1.65
21.415	48124	1.51
21.420	51082	1.61
21.425	51795	1.63
21.430	51035	1.60
21.435	54013	1.70
21.440	52374	1.65
21.445	48430	1.52
21.450	49177	1.55
21.455	49005	1.54
21.460	47190	1.48
21.465	52644	1.65
21.470	47528	1.49
21.475	52181	1.64
21.480	48736	1.53
21.485	48524	1.52
21.490	48882	1.54
21.495	49505	1.56
21.500	50622	1.59
21.505	49667	1.56
21.510	48226	1.52
21.515	49082	1.54
21.520	48742	1.53
21.525	51828	1.63
21.530	50722	1.59
21.535	47097	1.48
21.540	51434	1.62
21.545	51225	1.61
21.550	49336	1.55
21.555	51835	1.63
21.560	49301	1.55
21.565	52114	1.64
21.570	50495	1.59
21.575	48272	1.52
21.580	51073	1.61
21.585	49887	1.57
21.590	48888	1.54
21.595	50843	1.60
21.600	47374	1.49
21.605	50529	1.59
21.610	48475	1.52
21.615	47731	1.50
21.620	48329	1.52
21.625	48000	1.51
21.630	47178	1.48
21.635	48486	1.52
21.640	49438	1.55
21.645	49726	1.56
21.650	48646	1.53
21.655	50478	1.59
21.660	49303	1.55
21.665	48699	1.53
21.670	48744	1.53
21.675	48473	1.52
21.680	49329	1.55
21.685	49373	1.55
21.690	49222	1.55
21.695	48729	1.53
21.700	48243	1.52
21.705	47962	1.51
21.710	51374	1.61
21.715	51397	1.62
21.720	47908	1.51
21.725	50762	1.60
21.730	47120	1.48
21.735	50375	1.58
21.740	50149	1.58
21.745	50363	1.58
21.750	50781	1.60
21.755	49029	1.54
21.760	47205	1.48
21.765	48319	1.52
21.770	50575	1.59
21.775	50688	1.59
21.780	46132	1.45
21.785	50449	1.59
21.790	50000	1.57
21.795	48977	1.54
21.800	47110	1.48
21.805	48975	1.54
21.810	50829	1.60
21.815	49383	1.55
21.820	48219	1.52
21.825	50911	1.60
21.830	48726	1.53
21.835	50383	1.58
21.840	49435	1.55
21.845	47769	1.50
21.850	50653	1.59
21.855	49655	1.56
21.860	47826	1.50
21.865	49390	1.55
21.870	49461	1.55
21.875	48943	1.54
21.880	49562	1.56
21.885	46173	1.45
21.890	48515	1.52
21.895	50703	1.59
21.900	48624	1.53
21.905	48655	1.53
21.910	47133	1.48
21.915	48191	1.51
21.920	48860	1.54
21.925	48813	1.53
21.930	48735	1.53
21.935	46591	1.46
21.940	51088	1.61
21.945	48235	1.52
21.950	48222	1.52
21.955	47458	1.49
21.960	47827	1.50
21.965	46997	1.48
21.970	49159	1.54
21.975	48404	1.52
21.980	47154	1.48
21.985	48555	1.53
21.990	51919	1.63
21.995	49656	1.56
22.000	45965	1.44
22.005	46503	1.46
22.010	47115	1.48
22.015	48672	1.53
22.020	50393	1.58
22.025	50405	1.58
22.030	47884	1.50
22.035	48244	1.52
22.040	48733	1.53
22.045	50514	1.59
22.050	46301	1.46
22.055	49099	1.54
22.060	45793	1.44
22.065	47893	1.51
22.070	49434	1.55
22.075	48415	1.52
22.080	49709	1.56
22.085	47953	1.51
22.090	48967	1.54
22.095	51559	1.62
22.100	47113	1.48
22.105	51217	1.61
22.110	51015	1.60
22.115	48156	1.51
22.120	49329	1.55
22.125	49638	1.56
22.130	47349	1.49
22.135	53054	1.67
22.140	45375	1.43
22.145	48415	1.52
22.150	49117	1.54
22.155	45253	1.42
22.160	48713	1.53
22.165	45403	1.43
22.170	49629	1.56
22.175	47433	1.49
22.180	47689	1.50
22.185	49491	1.56
22.190	47242	1.48
22.195	49316	1.55
22.200	52045	1.64
22.205	47968	1.51
22.210	48696	1.53
22.215	44117	1.39
22.220	50352	1.58
22.225	47281	1.49
22.230	48270	1.52
22.235	48849	1.54
22.240	49260	1.55
22.245	47641	1.50
22.250	48402	1.52
22.255	48016	1.51
22.260	47035	1.48
22.265	49710	1.56
22.270	47614	1.50
22.275	47246	1.48
22.280	51408	1.62
22.285	48943	1.54
22.290	50452	1.59
22.295	46936	1.48
22.300	46858	1.47
22.305	48739	1.53
22.310	47506	1.49
22.315	48559	1.53
22.320	47251	1.48
22.325	45915	1.44
22.330	48079	1.51
22.335	48377	1.52
22.340	48824	1.53
22.345	47996	1.51
22.350	48581	1.53
22.355	50255	1.58
22.360	46908	1.47
22.365	48916	1.54
22.370	47354	1.49
22.375	48002	1.51
22.380	48735	1.53
22.385	45562	1.43
22.390	47480	1.49
22.395	46246	1.45
22.400	46350	1.46
22.405	50753	1.59
22.410	48502	1.52
22.415	45703	1.44
22.420	48306	1.52
22.425	43985	1.38
22.430	46815	1.47
22.435	47735	1.50
22.440	46558	1.46
22.445	47063	1.48
22.450	46209	1.45
22.455	46640	1.47
22.460	50116	1.57
22.465	47386	1.49
22.470	48699	1.53
22.475	47670	1.50
22.480	50570	1.59
22.485	47057	1.48
22.490	44099	1.39
22.495	48467	1.52
22.500	48549	1.53
22.505	45259	1.42
22.510	49934	1.57
22.515	44585	1.40
22.520	44436	1.40
22.525	47548	1.49
22.530	47683	1.50
22.535	47411	1.49
22.540	47810	1.50
22.545	47327	1.49
22.550	48076	1.51
22.555	47451	1.49
22.560	49548	1.56
22.565	45328	1.42
22.570	46855	1.47
22.575	48727	1.53
22.580	45176	1.42
22.585	46746	1.47
22.590	46336	1.46
22.595	47157	1.48
22.600	47083	1.48
22.605	45589	1.43
22.610	49246	1.55
22.615	47302	1.49
22.620	45336	1.42
22.625	45928	1.44
22.630	44509	1.40
22.635	47402	1.49
22.640	46429	1.46
22.645	44428	1.40
22.650	49003	1.54
22.655	51695	1.62
22.660	45447	1.43
22.665	45171	1.42
22.670	45719	1.44
22.675	50810	1.60
22.680	48131	1.51
22.685	46137	1.45
22.690	46577	1.46
22.695	46602	1.46
22.700	47971	1.51
22.705	46717	1.47
22.710	46494	1.46
22.715	44673	1.40
22.720	48014	1.51
22.725	48022	1.51
22.730	46922	1.47
22.735	47302	1.49
22.740	45432	1.43
22.745	46672	1.47
22.750	46527	1.46
22.755	48057	1.51
22.760	45511	1.43
22.765	46451	1.46
22.770	48094	1.51
22.775	47516	1.49
22.780	46530	1.46
22.785	46941	1.48
22.790	48856	1.54
22.795	47958	1.51
22.800	45959	1.44
22.805	47727	1.50
22.810	44402	1.40
22.815	47841	1.50
22.820	47258	1.49
22.825	46320	1.46
22.830	46078	1.45
22.835	45297	1.42
22.840	46869	1.47
22.845	45748	1.44
22.850	44691	1.40
22.855	44249	1.39
22.860	47980	1.51
22.865	47195	1.48
22.870	48098	1.51
22.875	46900	1.47
22.880	48388	1.52
22.885	47738	1.50
22.890	45131	1.42
22.895	46238	1.45
22.900	47729	1.50
22.905	45947	1.44
22.910	49256	1.55
22.915	46392	1.46
22.920	46649	1.47
22.925	44976	1.41
22.930	45857	1.44
22.935	45872	1.44
22.940	45602	1.43
22.945	49059	1.54
22.950	46382	1.46
22.955	46177	1.45
22.960	46350	1.46
22.965	44350	1.39
22.970	48591	1.53
22.975	45552	1.43
22.980	46851	1.47
22.985	48098	1.51
22.990	44247	1.39
22.995	46884	1.47
23.000	47517	1.49
23.005	48498	1.52
23.010	49563	1.56
23.015	46702	1.47
23.020	45654	1.43
23.025	47682	1.50
23.030	43632	1.37
23.035	48513	1.52
23.040	44983	1.41
23.045	46482	1.46
23.050	48930	1.54
23.055	45075	1.42
23.060	49295	1.55
23.065	46771	1.47
23.070	45856	1.44
23.075	47075	1.48
23.080	44436	1.40
23.085	45530	1.43
23.090	45971	1.44
23.095	46109	1.45
23.100	45535	1.43
23.105	48477	1.52
23.110	45314	1.42
23.115	47493	1.49
23.120	45273	1.42
23.125	45048	1.42
23.130	46616	1.46
23.135	47020	1.48
23.140	47098	1.48
23.145	46329	1.46
23.150	46330	1.46
23.155	47011	1.48
23.160	44184	1.39
23.165	47520	1.49
23.170	46601	1.46
23.175	44319	1.39
23.180	46482	1.46
23.185	43804	1.38
23.190	46781	1.47
23.195	46216	1.45
23.200	45681	1.44
23.205	47342	1.49
23.210	45586	1.43
23.215	49753	1.56
23.220	47982	1.51
23.225	43465	1.37
23.230	46355	1.46
23.235	44668	1.40
23.240	46205	1.45
23.245	44729	1.41
23.250	43770	1.38
23.255	49079	1.54
23.260	45481	1.43
23.265	46064	1.45
23.270	44545	1.40
23.275	43764	1.38
23.280	46749	1.47
23.285	48187	1.51
23.290	45759	1.44
23.295	45324	1.42
23.300	44245	1.39
23.305	46350	1.46
23.310	43881	1.38
23.315	43374	1.36
23.320	49263	1.55
23.325	46073	1.45
23.330	42649	1.34
23.335	45998	1.45
23.340	43788	1.38
23.345	44427	1.40
23.350	43157	1.36
23.355	45700	1.44
23.360	44134	1.39
23.365	45063	1.42
23.370	45226	1.42
23.375	44535	1.40
23.380	45511	1.43
23.385	45010	1.41
23.390	45204	1.42
23.395	47052	1.48
23.400	46261	1.45
23.405	44528	1.40
23.410	44735	1.41
23.415	47141	1.48
23.420	45365	1.43
23.425	46529	1.46
23.430	43604	1.37
23.435	46563	1.46
23.440	46435	1.46
23.445	45313	1.42
23.450	47034	1.48
23.455	45443	1.43
23.460	45183	1.42
23.465	45223	1.42
23.470	43503	1.37
23.475	43663	1.37
23.480	44773	1.41
23.485	45271	1.42
23.490	46016	1.45
23.495	44490	1.40
23.500	44549	1.40
23.505	46760	1.47
23.510	44794	1.41
23.515	45082	1.42
23.520	43448	1.37
23.525	44950	1.41
23.530	43697	1.37
23.535	41860	1.32
23.540	44059	1.38
23.545	46814	1.47
23.550	46970	1.48
23.555	46425	1.46
23.560	42830	1.35
23.565	45346	1.43
23.570	44831	1.41
23.575	46934	1.47
23.580	46162	1.45
23.585	42469	1.33
23.590	46145	1.45
23.595	43641	1.37
23.600	45707	1.44
23.605	45348	1.43
23.610	43729	1.37
23.615	45316	1.42
23.620	41601	1.31
23.625	45228	1.42
23.630	44714	1.41
23.635	44545	1.40
23.640	47720	1.50
23.645	45577	1.43
23.650	41988	1.32
23.655	43747	1.37
23.660	44962	1.41
23.665	45621	1.43
23.670	45244	1.42
23.675	40781	1.28
23.680	43509	1.37
23.685	45778	1.44
23.690	45190	1.42
23.695	47190	1.48
23.700	44384	1.39
23.705	44152	1.39
23.710	45078	1.42
23.715	43803	1.38
23.720	44530	1.40
23.725	44966	1.41
23.730	44464	1.40
23.735	43763	1.38
23.740	41970	1.32
23.745	47285	1.49
23.750	43590	1.37
23.755	45620	1.43
23.760	46644	1.47
23.765	42386	1.33
23.770	48905	1.54
23.775	45358	1.43
23.780	44263	1.39
23.785	43605	1.37
23.790	45941	1.44
23.795	46022	1.45
23.800	42446	1.33
23.805	43544	1.37
23.810	44372	1.39
23.815	47032	1.48
23.820	44375	1.39
23.825	48138	1.51
23.830	43975	1.38
23.835	44379	1.39
23.840	43912	1.38
23.845	44765	1.41
23.850	45377	1.43
23.855	44556	1.40
23.860	45893	1.44
23.865	45541	1.43
23.870	43408	1.36
23.875	45579	1.43
23.880	42916	1.35
23.885	45346	1.43
23.890	46090	1.45
23.895	44296	1.39
23.900	45555	1.43
23.905	41952	1.32
23.910	44613	1.40
23.915	49218	1.55
23.920	42227	1.33
23.925	43616	1.37
23.930	41791	1.31
23.935	45364	1.43
23.940	44097	1.39
23.945	42820	1.35
23.950	45306	1.42
23.955	43701	1.37
23.960	44031	1.38
23.965	46354	1.46
23.970	42753	1.34
23.975	44127	1.39
23.980	45663	1.44
23.985	44445	1.40
23.990	46974	1.48
23.995	45822	1.44
24.000	43996	1.38
24.005	45811	1.44
24.010	42026	1.32
24.015	44617	1.40
24.020	42960	1.35
24.025	42278	1.33
24.030	45576	1.43
24.035	44645	1.40
24.040	46887	1.47
24.045	45966	1.44
24.050	43934	1.38
24.055	45676	1.44
24.060	45407	1.43
24.065	43623	1.37
24.070	43125	1.36
24.075	40616	1.28
24.080	45070	1.42
24.085	44022	1.38
24.090	45405	1.43
24.095	46367	1.46
24.100	45850	1.44
24.105	44351	1.39
24.110	46122	1.45
24.115	44924	1.41
24.120	44959	1.41
24.125	42993	1.35
24.130	46436	1.46
24.135	44187	1.39
24.140	44130	1.39
24.145	45450	1.43
24.150	42770	1.34
24.155	44971	1.41
24.160	42569	1.34
24.165	43913	1.38
24.170	47240	1.48
24.175	43445	1.37
24.180	44193	1.39
24.185	46051	1.45
24.190	44022	1.38
24.195	46411	1.46
24.200	44098	1.39
24.205	43379	1.36
24.210	44818	1.41
24.215	42182	1.33
24.220	47954	1.51
24.225	44072	1.39
24.230	44717	1.41
24.235	45884	1.44
24.240	43496	1.37
24.245	44603	1.40
24.250	42764	1.34
24.255	42527	1.34
24.260	45315	1.42
24.265	44798	1.41
24.270	45859	1.44
24.275	42905	1.35
24.280	41898	1.32
24.285	44993	1.41
24.290	43433	1.36
24.295	45433	1.43
24.300	43591	1.37
24.305	44652	1.40
24.310	44132	1.39
24.315	43196	1.36
24.320	41212	1.30
24.325	44167	1.39
24.330	45042	1.42
24.335	42612	1.34
24.340	43583	1.37
24.345	41361	1.30
24.350	43145	1.36
24.355	44434	1.40
24.360	41049	1.29
24.365	43773	1.38
24.370	42542	1.34
24.375	43572	1.37
24.380	43848	1.38
24.385	40754	1.28
24.390	43885	1.38
24.395	43529	1.37
24.400	41992	1.32
24.405	44172	1.39
24.410	43256	1.36
24.415	44197	1.39
24.420	45169	1.42
24.425	42605	1.34
24.430	44156	1.39
24.435	45315	1.42
24.440	41832	1.31
24.445	44494	1.40
24.450	43909	1.38
24.455	49170	1.55
24.460	43014	1.35
24.465	44279	1.39
24.470	44741	1.41
24.475	43229	1.36
24.480	42597	1.34
24.485	43535	1.37
24.490	41896	1.32
24.495	43898	1.38
24.500	40628	1.28
24.505	42065	1.32
24.510	45235	1.42
24.515	43008	1.35
24.520	44183	1.39
24.525	43912	1.38
24.530	41785	1.31
24.535	44207	1.39
24.540	41117	1.29
24.545	44796	1.41
24.550	48345	1.52
24.555	43589	1.37
24.560	46962	1.48
24.565	41977	1.32
24.570	44908	1.41
24.575	44945	1.41
24.580	42061	1.32
24.585	42372	1.33
24.590	42603	1.34
24.595	43398	1.36
24.600	43980	1.38
24.605	44749	1.41
24.610	42956	1.35
24.615	44959	1.41
24.620	42041	1.32
24.625	44589	1.40
24.630	43497	1.37
24.635	42999	1.35
24.640	43501	1.37
24.645	42961	1.35
24.650	46736	1.47
24.655	42492	1.34
24.660	42142	1.32
24.665	43120	1.36
24.670	42462	1.33
24.675	45028	1.42
24.680	43029	1.35
24.685	40873	1.28
24.690	44560	1.40
24.695	41734	1.31
24.700	42607	1.34
24.705	43923	1.38
24.710	43788	1.38
24.715	43785	1.38
24.720	42765	1.34
24.725	43684	1.37
24.730	43686	1.37
24.735	44972	1.41
24.740	43233	1.36
24.745	44791	1.41
24.750	41063	1.29
24.755	43990	1.38
24.760	43677	1.37
24.765	44238	1.39
24.770	44978	1.41
24.775	41319	1.30
24.780	43132	1.36
24.785	43997	1.38
24.790	42628	1.34
24.795	41268	1.30
24.800	43264	1.36
24.805	44947	1.41
24.810	43725	1.37
24.815	44242	1.39
24.820	42849	1.35
24.825	42711	1.34
24.830	44896	1.41
24.835	43870	1.38
24.840	41314	1.30
24.845	44186	1.39
24.850	40159	1.26
24.855	42890	1.35
24.860	43056	1.35
24.865	43444	1.37
24.870	43630	1.37
24.875	41604	1.31
24.880	42051	1.32
24.885	45466	1.43
24.890	40592	1.28
24.895	45248	1.42
24.900	46238	1.45
24.905	39749	1.25
24.910	42951	1.35
24.915	41073	1.29
24.920	42079	1.32
24.925	43928	1.38
24.930	44083	1.39
24.935	42617	1.34
24.940	41753	1.31
24.945	41143	1.29
24.950	43121	1.36
24.955	41721	1.31
24.960	44247	1.39
24.965	43246	1.36
24.970	41743	1.31
24.975	40723	1.28
24.980	40111	1.26
24.985	41246	1.30
24.990	41715	1.31
24.995	41132	1.29
25.000	42843	1.35
25.005	40293	1.27
25.010	42065	1.32
25.015	46029	1.45
25.020	42324	1.33
25.025	44989	1.41
25.030	40066	1.26
25.035	40008	1.26
25.040	42740	1.34
25.045	43286	1.36
25.050	40219	1.26
25.055	40426	1.27
25.060	40889	1.28
25.065	44521	1.40
25.070	42303	1.33
25.075	42663	1.34
25.080	40860	1.28
25.085	40891	1.29
25.090	40572	1.28
25.095	42866	1.35
25.100	41800	1.31
25.105	42613	1.34
25.110	40710	1.28
25.115	42895	1.35
25.120	43857	1.38
25.125	43687	1.37
25.130	44240	1.39
25.135	39280	1.23
25.140	40354	1.27
25.145	43138	1.36
25.150	42060	1.32
25.155	40869	1.28
25.160	41474	1.30
25.165	41271	1.30
25.170	42827	1.35
25.175	40317	1.27
25.180	42891	1.35
25.185	42393	1.33
25.190	42308	1.33
25.195	42415	1.33
25.200	40151	1.26
25.205	46708	1.47
25.210	42704	1.34
25.215	40469	1.27
25.220	45468	1.43
25.225	40804	1.28
25.230	41359	1.30
25.235	41250	1.30
25.240	43117	1.36
25.245	40820	1.28
25.250	43958	1.38
25.255	43926	1.38
25.260	43039	1.35
25.265	41513	1.30
25.270	42548	1.34
25.275	43712	1.37
25.280	41764	1.31
25.285	42737	1.34
25.290	42425	1.33
25.295	42565	1.34
25.300	45098	1.42
25.305	43913	1.38
25.310	41179	1.29
25.315	44176	1.39
25.320	41584	1.31
25.325	41690	1.31
25.330	40071	1.26
25.335	42894	1.35
25.340	41285	1.30
25.345	38673	1.22
25.350	41451	1.30
25.355	42757	1.34
25.360	41804	1.31
25.365	41675	1.31
25.370	43906	1.38
25.375	44519	1.40
25.380	42911	1.35
25.385	40085	1.26
25.390	42150	1.32
25.395	42425	1.33
25.400	42195	1.33
25.405	44202	1.39
25.410	40022	1.26
25.415	43001	1.35
25.420	41472	1.30
25.425	43208	1.36
25.430	44341	1.39
25.435	40392	1.27
25.440	43818	1.38
25.445	39633	1.25
25.450	40626	1.28
25.455	42492	1.34
25.460	37898	1.19
25.465	43068	1.35
25.470	42845	1.35
25.475	43984	1.38
25.480	44724	1.41
25.485	39502	1.24
25.490	41464	1.30
25.495	41643	1.31
25.500	41372	1.30
25.505	44676	1.40
25.510	38484	1.21
25.515	40425	1.27
25.520	41363	1.30
25.525	40545	1.27
25.530	43427	1.36
25.535	38910	1.22
25.540	41058	1.29
25.545	42090	1.32
25.550	39091	1.23
25.555	41504	1.30
25.560	41348	1.30
25.565	40984	1.29
25.570	41652	1.31
25.575	41262	1.30
25.580	42352	1.33
25.585	42243	1.33
25.590	39993	1.26
25.595	41540	1.31
25.600	43469	1.37
25.605	43677	1.37
25.610	43209	1.36
25.615	38813	1.22
25.620	40844	1.28
25.625	39680	1.25
25.630	41376	1.30
25.635	42590	1.34
25.640	37724	1.19
25.645	42370	1.33
25.650	40515	1.27
25.655	41061	1.29
25.660	41014	1.29
25.665	40344	1.27
25.670	40843	1.28
25.675	42296	1.33
25.680	41506	1.30
25.685	40086	1.26
25.690	41683	1.31
25.695	39273	1.23
25.700	43169	1.36
25.705	39637	1.25
25.710	43387	1.36
25.715	40731	1.28
25.720	43326	1.36
25.725	42573	1.34
25.730	40388	1.27
25.735	39362	1.24
25.740	39031	1.23
25.745	40891	1.29
25.750	43189	1.36
25.755	36836	1.16
25.760	39883	1.25
25.765	42828	1.35
25.770	38746	1.22
25.775	42509	1.34
25.780	39218	1.23
25.785	42727	1.34
25.790	41608	1.31
25.795	37094	1.17
25.800	43079	1.35
25.805	40111	1.26
25.810	43013	1.35
25.815	40862	1.28
25.820	40448	1.27
25.825	42506	1.34
25.830	41931	1.32
25.835	39485	1.24
25.840	42898	1.35
25.845	38318	1.20
25.850	40040	1.26
25.855	41678	1.31
25.860	38514	1.21
25.865	42002	1.32
25.870	37590	1.18
25.875	41060	1.29
25.880	42267	1.33
25.885	39871	1.25
25.890	41600	1.31
25.895	41348	1.30
25.900	41073	1.29
25.905	41888	1.32
25.910	42153	1.32
25.915	41411	1.30
25.920	41674	1.31
25.925	40541	1.27
25.930	41926	1.32
25.935	41312	1.30
25.940	38874	1.22
25.945	43543	1.37
25.950	39823	1.25
25.955	44080	1.39
25.960	39465	1.24
25.965	41226	1.30
25.970	40244	1.26
25.975	39608	1.24
25.980	39217	1.23
25.985	40084	1.26
25.990	41829	1.31
25.995	43890	1.38
26.000	38624	1.21
26.005	41318	1.30
26.010	42363	1.33
26.015	39224	1.23
26.020	40988	1.29
26.025	40865	1.28
26.030	38829	1.22
26.035	40991	1.29
26.040	41578	1.31
26.045	41055	1.29
26.050	40755	1.28
26.055	40119	1.26
26.060	42570	1.34
26.065	39702	1.25
26.070	41476	1.30
26.075	42988	1.35
26.080	37720	1.19
26.085	40243	1.26
26.090	36549	1.15
26.095	38793	1.22
26.100	41977	1.32
26.105	40805	1.28
26.110	42765	1.34
26.115	41375	1.30
26.120	38262	1.20
26.125	39803	1.25
26.130	37930	1.19
26.135	40742	1.28
26.140	40130	1.26
26.145	41643	1.31
26.150	41917	1.32
26.155	41073	1.29
26.160	41102	1.29
26.165	41283	1.30
26.170	41056	1.29
26.175	41057	1.29
26.180	38031	1.20
26.185	41818	1.31
26.190	42981	1.35
26.195	38516	1.21
26.200	40389	1.27
26.205	40846	1.28
26.210	37486	1.18
26.215	38118	1.20
26.220	37692	1.18
26.225	41234	1.30
26.230	40642	1.28
26.235	37760	1.19
26.240	41145	1.29
26.245	40650	1.28
26.250	38469	1.21
26.255	39604	1.24
26.260	38791	1.22
26.265	41288	1.30
26.270	41466	1.30
26.275	40390	1.27
26.280	42541	1.34
26.285	42319	1.33
26.290	38736	1.22
26.295	41481	1.30
26.300	41419	1.30
26.305	39346	1.24
26.310	40492	1.27
26.315	39934	1.25
26.320	39286	1.23
26.325	37743	1.19
26.330	40953	1.29
26.335	41165	1.29
26.340	38458	1.21
26.345	39487	1.24
26.350	40459	1.27
26.355	37952	1.19
26.360	39738	1.25
26.365	38906	1.22
26.370	42058	1.32
26.375	39403	1.24
26.380	39983	1.26
26.385	40362	1.27
26.390	38180	1.20
26.395	42192	1.33
26.400	39762	1.25
26.405	39367	1.24
26.410	40865	1.28
26.415	40196	1.26
26.420	38094	1.20
26.425	40685	1.28
26.430	40481	1.27
26.435	40176	1.26
26.440	38468	1.21
26.445	42636	1.34
26.450	37859	1.19
26.455	40976	1.29
26.460	41088	1.29
26.465	36736	1.15
26.470	38930	1.22
26.475	41014	1.29
26.480	40768	1.28
26.485	40205	1.26
26.490	42068	1.32
26.495	38041	1.20
26.500	41676	1.31
26.505	39536	1.24
26.510	41772	1.31
26.515	40476	1.27
26.520	38182	1.20
26.525	38110	1.20
26.530	38640	1.21
26.535	37444	1.18
26.540	39228	1.23
26.545	38602	1.21
26.550	37774	1.19
26.555	38941	1.22
26.560	35437	1.11
26.565	39725	1.25
26.570	42367	1.33
26.575	39729	1.25
26.580	37648	1.18
26.585	38608	1.21
26.590	40049	1.26
26.595	38867	1.22
26.600	40488	1.27
26.605	39259	1.23
26.610	38913	1.22
26.615	36502	1.15
26.620	40209	1.26
26.625	39359	1.24
26.630	39560	1.24
26.635	40974	1.29
26.640	40409	1.27
26.645	41705	1.31
26.650	39578	1.24
26.655	40705	1.28
26.660	38082	1.20
26.665	37373	1.17
26.670	39559	1.24
26.675	38189	1.20
26.680	39415	1.24
26.685	37160	1.17
26.690	35507	1.12
26.695	39566	1.24
26.700	38473	1.21
26.705	37635	1.18
26.710	40214	1.26
26.715	36114	1.13
26.720	39364	1.24
26.725	41036	1.29
26.730	39121	1.23
26.735	40573	1.28
26.740	37041	1.16
26.745	38742	1.22
26.750	40077	1.26
26.755	37734	1.19
26.760	40193	1.26
26.765	37703	1.18
26.770	36456	1.15
26.775	38668	1.22
26.780	36462	1.15
26.785	40483	1.27
26.790	38984	1.23
26.795	39807	1.25
26.800	39112	1.23
26.805	35892	1.13
26.810	38157	1.20
26.815	38531	1.21
26.820	38254	1.20
26.825	38541	1.21
26.830	39212	1.23
26.835	40307	1.27
26.840	39023	1.23
26.845	38196	1.20
26.850	38059	1.20
26.855	37648	1.18
26.860	38528	1.21
26.865	38930	1.22
26.870	35746	1.12
26.875	40430	1.27
26.880	36213	1.14
26.885	38643	1.21
26.890	36869	1.16
26.895	39961	1.26
26.900	38535	1.21
26.905	40588	1.28
26.910	39438	1.24
26.915	39286	1.23
26.920	36969	1.16
26.925	36374	1.14
26.930	38698	1.22
26.935	36108	1.13
26.940	40380	1.27
26.945	37373	1.17
26.950	40846	1.28
26.955	40481	1.27
26.960	40233	1.26
26.965	39082	1.23
26.970	40008	1.26
26.975	38202	1.20
26.980	41181	1.29
26.985	39922	1.25
26.990	37624	1.18
26.995	39677	1.25
27.000	35425	1.11
27.005	38401	1.21
27.010	37930	1.19
27.015	40365	1.27
27.020	40014	1.26
27.025	38111	1.20
27.030	38632	1.21
27.035	38285	1.20
27.040	37479	1.18
27.045	39450	1.24
27.050	38500	1.21
27.055	36986	1.16
27.060	37063	1.16
27.065	37572	1.18
27.070	39500	1.24
27.075	40744	1.28
27.080	38542	1.21
27.085	39732	1.25
27.090	36508	1.15
27.095	39234	1.23
27.100	39651	1.25
27.105	37859	1.19
27.110	39105	1.23
27.115	39313	1.24
27.120	38759	1.22
27.125	37786	1.19
27.130	40069	1.26
27.135	36830	1.16
27.140	36948	1.16
27.145	35643	1.12
27.150	38262	1.20
27.155	38061	1.20
27.160	39242	1.23
27.165	35420	1.11
27.170	38692	1.22
27.175	39298	1.23
27.180	36915	1.16
27.185	39211	1.23
27.190	37681	1.18
27.195	37297	1.17
27.200	34646	1.09
27.205	41936	1.32
27.210	37673	1.18
27.215	37046	1.16
27.220	37335	1.17
27.225	38407	1.21
27.230	36871	1.16
27.235	38432	1.21
27.240	38946	1.22
27.245	37218	1.17
27.250	37279	1.17
27.255	39859	1.25
27.260	37524	1.18
27.265	39494	1.24
27.270	36307	1.14
27.275	38097	1.20
27.280	39754	1.25
27.285	36375	1.14
27.290	40335	1.27
27.295	37830	1.19
27.300	39713	1.25
27.305	40057	1.26
27.310	35781	1.12
27.315	37869	1.19
27.320	38326	1.20
27.325	35601	1.12
27.330	38496	1.21
27.335	34932	1.10
27.340	35815	1.13
27.345	38446	1.21
27.350	37159	1.17
27.355	39798	1.25
27.360	38652	1.21
27.365	39897	1.25
27.370	37546	1.18
27.375	37303	1.17
27.380	38040	1.20
27.385	38275	1.20
27.390	37571	1.18
27.395	38957	1.22
27.400	36674	1.15
27.405	38692	1.22
27.410	35883	1.13
27.415	38570	1.21
27.420	39713	1.25
27.425	36836	1.16
27.430	38574	1.21
27.435	36964	1.16
27.440	39314	1.24
27.445	36215	1.14
27.450	35216	1.11
27.455	37074	1.17
27.460	35945	1.13
27.465	36530	1.15
27.470	39045	1.23
27.475	36291	1.14
27.480	36781	1.16
27.485	39131	1.23
27.490	35214	1.11
27.495	37538	1.18
27.500	38455	1.21
27.505	37910	1.19
27.510	37941	1.19
27.515	38949	1.22
27.520	39501	1.24
27.525	37635	1.18
27.530	37565	1.18
27.535	40810	1.28
27.540	36029	1.13
27.545	38706	1.22
27.550	39648	1.25
27.555	36939	1.16
27.560	38254	1.20
27.565	35372	1.11
27.570	36554	1.15
27.575	38801	1.22
27.580	37496	1.18
27.585	37251	1.17
27.590	35629	1.12
27.595	36837	1.16
27.600	37506	1.18
27.605	36314	1.14
27.610	39118	1.23
27.615	35031	1.10
27.620	35449	1.11
27.625	37997	1.19
27.630	35123	1.10
27.635	37710	1.19
27.640	36604	1.15
27.645	37560	1.18
27.650	36769	1.16
27.655	35167	1.11
27.660	38058	1.20
27.665	40403	1.27
27.670	38014	1.19
27.675	40288	1.27
27.680	37349	1.17
27.685	34112	1.07
27.690	37032	1.16
27.695	36658	1.15
27.700	36780	1.16
27.705	37217	1.17
27.710	36105	1.13
27.715	40087	1.26
27.720	36607	1.15
27.725	39512	1.24
27.730	38488	1.21
27.735	37379	1.17
27.740	38028	1.20
27.745	36066	1.13
27.750	36820	1.16
27.755	39060	1.23
27.760	37674	1.18
27.765	38003	1.19
27.770	37832	1.19
27.775	34955	1.10
27.780	37171	1.17
27.785	37303	1.17
27.790	39741	1.25
27.795	33883	1.06
27.800	36406	1.14
27.805	40164	1.26
27.810	36610	1.15
27.815	36768	1.16
27.820	37511	1.18
27.825	34499	1.08
27.830	37908	1.19
27.835	37710	1.19
27.840	34959	1.10
27.845	36541	1.15
27.850	38049	1.20
27.855	37427	1.18
27.860	35341	1.11
27.865	35811	1.13
27.870	39123	1.23
27.875	35532	1.12
27.880	38915	1.22
27.885	35907	1.13
27.890	35720	1.12
27.895	37017	1.16
27.900	37779	1.19
27.905	38249	1.20
27.910	34087	1.07
27.915	35428	1.11
27.920	39990	1.26
27.925	37808	1.19
27.930	38768	1.22
27.935	38337	1.20
27.940	36915	1.16
27.945	36189	1.14
27.950	36944	1.16
27.955	37738	1.19
27.960	37434	1.18
27.965	35233	1.11
27.970	36239	1.14
27.975	37831	1.19
27.980	38628	1.21
27.985	36293	1.14
27.990	37119	1.17
27.995	37149	1.17
28.000	37408	1.18
28.005	35556	1.12
28.010	40240	1.26
28.015	34979	1.10
28.020	39868	1.25
28.025	36652	1.15
28.030	37264	1.17
28.035	37809	1.19
28.040	36632	1.15
28.045	36577	1.15
28.050	37276	1.17
28.055	35409	1.11
28.060	37640	1.18
28.065	37183	1.17
28.070	34982	1.10
28.075	36488	1.15
28.080	33351	1.05
28.085	37238	1.17
28.090	36078	1.13
28.095	34700	1.09
28.100	35806	1.13
28.105	36186	1.14
28.110	34431	1.08
28.115	36479	1.15
28.120	36237	1.14
28.125	35416	1.11
28.130	37425	1.18
28.135	34431	1.08
28.140	37493	1.18
28.145	38082	1.20
28.150	37340	1.17
28.155	37033	1.16
28.160	39140	1.23
28.165	39883	1.25
28.170	36207	1.14
28.175	34829	1.09
28.180	37952	1.19
28.185	35202	1.11
28.190	37733	1.19
28.195	37044	1.16
28.200	34965	1.10
28.205	35936	1.13
28.210	35731	1.12
28.215	37924	1.19
28.220	35939	1.13
28.225	34931	1.10
28.230	37022	1.16
28.235	35027	1.10
28.240	36911	1.16
28.245	35723	1.12
28.250	35823	1.13
28.255	36136	1.14
28.260	35228	1.11
28.265	39295	1.23
28.270	37445	1.18
28.275	37322	1.17
28.280	37663	1.18
28.285	32708	1.03
28.290	36464	1.15
28.295	35385	1.11
28.300	35843	1.13
28.305	36713	1.15
28.310	35198	1.11
28.315	37718	1.19
28.320	36514	1.15
28.325	35413	1.11
28.330	38283	1.20
28.335	35780	1.12
28.340	35720	1.12
28.345	37982	1.19
28.350	37668	1.18
28.355	37418	1.18
28.360	34548	1.09
28.365	36193	1.14
28.370	35755	1.12
28.375	36277	1.14
28.380	40375	1.27
28.385	36991	1.16
28.390	36813	1.16
28.395	36581	1.15
28.400	33908	1.07
28.405	37510	1.18
28.410	35420	1.11
28.415	34844	1.10
28.420	36691	1.15
28.425	33057	1.04
28.430	37962	1.19
28.435	34595	1.09
28.440	35591	1.12
28.445	35781	1.12
28.450	32507	1.02
28.455	35822	1.13
28.460	36885	1.16
28.465	36829	1.16
28.470	39425	1.24
28.475	35925	1.13
28.480	35773	1.12
28.485	35098	1.10
28.490	35402	1.11
28.495	38971	1.22
28.500	35666	1.12
28.505	35745	1.12
28.510	36819	1.16
28.515	36032	1.13
28.520	37184	1.17
28.525	35874	1.13
28.530	38550	1.21
28.535	37880	1.19
28.540	37006	1.16
28.545	37030	1.16
28.550	37061	1.16
28.555	34691	1.09
28.560	37050	1.16
28.565	35419	1.11
28.570	38518	1.21
28.575	35583	1.12
28.580	34709	1.09
28.585	38074	1.20
28.590	35058	1.10
28.595	36341	1.14
28.600	37025	1.16
28.605	35479	1.11
28.610	35681	1.12
28.615	37342	1.17
28.620	35424	1.11
28.625	36542	1.15
28.630	34947	1.10
28.635	36150	1.14
28.640	36027	1.13
28.645	37897	1.19
28.650	36873	1.16
28.655	35700	1.12
28.660	37766	1.19
28.665	37019	1.16
28.670	35129	1.10
28.675	36775	1.16
28.680	37559	1.18
28.685	35817	1.13
28.690	36038	1.13
28.695	34681	1.09
28.700	38642	1.21
28.705	35461	1.11
28.710	37537	1.18
28.715	39231	1.23
28.720	33501	1.05
28.725	39338	1.24
28.730	37327	1.17
28.735	33885	1.06
28.740	35412	1.11
28.745	34997	1.10
28.750	35522	1.12
28.755	35398	1.11
28.760	31387	0.99
28.765	33554	1.05
28.770	34676	1.09
28.775	36260	1.14
28.780	36366	1.14
28.785	36367	1.14
28.790	36156	1.14
28.795	33912	1.07
28.800	35907	1.13
28.805	37434	1.18
28.810	36786	1.16
28.815	37813	1.19
28.820	35043	1.10
28.825	34268	1.08
28.830	37263	1.17
28.835	33778	1.06
28.840	34812	1.09
28.845	35851	1.13
28.850	35034	1.10
28.855	36556	1.15
28.860	32404	1.02
28.865	35771	1.12
28.870	38103	1.20
28.875	35128	1.10
28.880	38854	1.22
28.885	36406	1.14
28.890	33880	1.06
28.895	35252	1.11
28.900	34873	1.10
28.905	35421	1.11
28.910	38216	1.20
28.915	34856	1.10
28.920	36663	1.15
28.925	34963	1.10
28.930	34418	1.08
28.935	36431	1.14
28.940	35275	1.11
28.945	36455	1.15
28.950	35784	1.12
28.955	35534	1.12
28.960	38248	1.20
28.965	36909	1.16
28.970	35309	1.11
28.975	34817	1.09
28.980	34641	1.09
28.985	34765	1.09
28.990	34243	1.08
28.995	34809	1.09
29.000	36519	1.15
29.005	34922	1.10
29.010	36143	1.14
29.015	34796	1.09
29.020	36195	1.14
29.025	34634	1.09
29.030	35214	1.11
29.035	37260	1.17
29.040	36121	1.14
29.045	32966	1.04
29.050	35559	1.12
29.055	34684	1.09
29.060	36750	1.15
29.065	34090	1.07
29.070	36610	1.15
29.075	36386	1.14
29.080	35310	1.11
29.085	34144	1.07
29.090	35570	1.12
29.095	32750	1.03
29.100	36089	1.13
29.105	33759	1.06
29.110	35397	1.11
29.115	36873	1.16
29.120	33596	1.06
29.125	34244	1.08
29.130	36457	1.15
29.135	35077	1.10
29.140	34440	1.08
29.145	34086	1.07
29.150	34824	1.09
29.155	35168	1.11
29.160	34294	1.08
29.165	36555	1.15
29.170	34428	1.08
29.175	33472	1.05
29.180	39401	1.24
29.185	35984	1.13
29.190	33133	1.04
29.195	35817	1.13
29.200	35591	1.12
29.205	33635	1.06
29.210	34936	1.10
29.215	34251	1.08
29.220	37499	1.18
29.225	34193	1.07
29.230	37085	1.17
29.235	37090	1.17
29.240	32903	1.03
29.245	33848	1.06
29.250	32842	1.03
29.255	36600	1.15
29.260	34099	1.07
29.265	32374	1.02
29.270	34601	1.09
29.275	33703	1.06
29.280	35814	1.13
29.285	36034	1.13
29.290	33918	1.07
29.295	36028	1.13
29.300	34348	1.08
29.305	35065	1.10
29.310	35691	1.12
29.315	31754	1.00
29.320	33084	1.04
29.325	32799	1.03
29.330	34973	1.10
29.335	35834	1.13
29.340	34406	1.08
29.345	34953	1.10
29.350	36135	1.14
29.355	28194	0.89
29.360	34986	1.10
29.365	36028	1.13
29.370	35278	1.11
29.375	35658	1.12
29.380	32622	1.03
29.385	35029	1.10
29.390	35535	1.12
29.395	34632	1.09
29.400	34505	1.08
29.405	34726	1.09
29.410	37442	1.18
29.415	35275	1.11
29.420	34405	1.08
29.425	37105	1.17
29.430	35959	1.13
29.435	33036	1.04
29.440	35533	1.12
29.445	32961	1.04
29.450	34264	1.08
29.455	34335	1.08
29.460	35265	1.11
29.465	35220	1.11
29.470	35254	1.11
29.475	33813	1.06
29.480	32514	1.02
29.485	34939	1.10
29.490	34742	1.09
29.495	33979	1.07
29.500	34305	1.08
29.505	34702	1.09
29.510	33052	1.04
29.515	35535	1.12
29.520	34404	1.08
29.525	36443	1.15
29.530	33399	1.05
29.535	34560	1.09
29.540	35184	1.11
29.545	33055	1.04
29.550	36533	1.15
29.555	38735	1.22
29.560	33944	1.07
29.565	35040	1.10
29.570	37380	1.17
29.575	33936	1.07
29.580	34731	1.09
29.585	33949	1.07
29.590	35700	1.12
29.595	32935	1.04
29.600	33530	1.05
29.605	34023	1.07
29.610	33203	1.04
29.615	33849	1.06
29.620	33889	1.07
29.625	34148	1.07
29.630	35871	1.13
29.635	35279	1.11
29.640	35956	1.13
29.645	36368	1.14
29.650	31570	0.99
29.655	34737	1.09
29.660	32212	1.01
29.665	34174	1.07
29.670	33402	1.05
29.675	31915	1.00
29.680	36463	1.15
29.685	34177	1.07
29.690	30127	0.95
29.695	33327	1.05
29.700	34957	1.10
29.705	35382	1.11
29.710	36075	1.13
29.715	33159	1.04
29.720	33455	1.05
29.725	32710	1.03
29.730	33729	1.06
29.735	33843	1.06
29.740	32089	1.01
29.745	35133	1.10
29.750	30510	0.96
29.755	33363	1.05
29.760	33544	1.05
29.765	36162	1.14
29.770	33900	1.07
29.775	36731	1.15
29.780	34523	1.08
29.785	35787	1.12
29.790	33011	1.04
29.795	32290	1.01
29.800	36817	1.16
29.805	32298	1.02
29.810	34840	1.09
29.815	34219	1.08
29.820	33527	1.05
29.825	31351	0.99
29.830	33376	1.05
29.835	34237	1.08
29.840	32755	1.03
29.845	32712	1.03
29.850	35395	1.11
29.855	34241	1.08
29.860	35099	1.10
29.865	34797	1.09
29.870	32744	1.03
29.875	34418	1.08
29.880	33314	1.05
29.885	33405	1.05
29.890	36972	1.16
29.895	30921	0.97
29.900	33771	1.06
29.905	34970	1.10
29.910	34720	1.09
29.915	33736	1.06
29.920	33896	1.07
29.925	33506	1.05
29.930	34929	1.10
29.935	30803	0.97
29.940	34292	1.08
29.945	34287	1.08
29.950	36196	1.14
29.955	32560	1.02
29.960	31957	1.00
29.965	32080	1.01
29.970	33196	1.04
29.975	32437	1.02
29.980	33584	1.06
29.985	32664	1.03
29.990	30289	0.95
29.995	33444	1.05
30.000	32882	1.03
30.005	35288	1.11
30.010	34852	1.10
30.015	33191	1.04
30.020	36558	1.15
30.025	30789	0.97
30.030	33087	1.04
30.035	35911	1.13
30.040	37227	1.17
30.045	35482	1.12
30.050	32642	1.03
30.055	33770	1.06
30.060	35526	1.12
30.065	35980	1.13
30.070	34851	1.10
30.075	33984	1.07
30.080	33172	1.04
30.085	33423	1.05
30.090	33794	1.06
30.095	36901	1.16
30.100	34763	1.09
30.105	34128	1.07
30.110	32077	1.01
30.115	32228	1.01
30.120	33812	1.06
30.125	36297	1.14
30.130	33001	1.04
30.135	32512	1.02
30.140	33067	1.04
30.145	32165	1.01
30.150	33064	1.04
30.155	31814	1.00
30.160	34419	1.08
30.165	31955	1.00
30.170	30603	0.96
30.175	35707	1.12
30.180	32305	1.02
30.185	34401	1.08
30.190	34861	1.10
30.195	31559	0.99
30.200	31214	0.98
30.205	31676	1.00
30.210	34449	1.08
30.215	35700	1.12
30.220	32903	1.03
30.225	37296	1.17
30.230	32645	1.03
30.235	31010	0.97
30.240	33687	1.06
30.245	30739	0.97
30.250	36050	1.13
30.255	34412	1.08
30.260	33385	1.05
30.265	33152	1.04
30.270	34244	1.08
30.275	30989	0.97
30.280	33609	1.06
30.285	33069	1.04
30.290	34174	1.07
30.295	33815	1.06
30.300	31870	1.00
30.305	34486	1.08
30.310	33688	1.06
30.315	32115	1.01
30.320	32444	1.02
30.325	29858	0.94
30.330	31907	1.00
30.335	33452	1.05
30.340	33486	1.05
30.345	35007	1.10
30.350	32762	1.03
30.355	32958	1.04
30.360	35403	1.11
30.365	32680	1.03
30.370	33900	1.07
30.375	30309	0.95
30.380	33176	1.04
30.385	31894	1.00
30.390	30744	0.97
30.395	34302	1.08
30.400	33686	1.06
30.405	33790	1.06
30.410	34040	1.07
30.415	31930	1.00
30.420	33056	1.04
30.425	33731	1.06
30.430	30006	0.94
30.435	33439	1.05
30.440	32500	1.02
30.445	35285	1.11
30.450	35516	1.12
30.455	32571	1.02
30.460	35903	1.13
30.465	32723	1.03
30.470	34550	1.09
30.475	35928	1.13
30.480	31035	0.98
30.485	34400	1.08
30.490	33552	1.05
30.495	31422	0.99
30.500	34318	1.08
30.505	31573	0.99
30.510	33879	1.06
30.515	33780	1.06
30.520	32070	1.01
30.525	32164	1.01
30.530	30156	0.95
30.535	34241	1.08
30.540	32978	1.04
30.545	32135	1.01
30.550	30559	0.96
30.555	31706	1.00
30.560	33515	1.05
30.565	36175	1.14
30.570	32727	1.03
30.575	35426	1.11
30.580	34572	1.09
30.585	33480	1.05
30.590	35837	1.13
30.595	30827	0.97
30.600	34686	1.09
30.605	29149	0.92
30.610	32936	1.04
30.615	33709	1.06
30.620	35177	1.11
30.625	33647	1.06
30.630	34459	1.08
30.635	32576	1.02
30.640	33789	1.06
30.645	31648	0.99
30.650	34741	1.09
30.655	33175	1.04
30.660	29329	0.92
30.665	33315	1.05
30.670	31061	0.98
30.675	33414	1.05
30.680	32998	1.04
30.685	31935	1.00
30.690	32718	1.03
30.695	34651	1.09
30.700	31119	0.98
30.705	32681	1.03
30.710	32166	1.01
30.715	30692	0.96
30.720	31922	1.00
30.725	33681	1.06
30.730	32952	1.04
30.735	31411	0.99
30.740	32857	1.03
30.745	34753	1.09
30.750	30633	0.96
30.755	34982	1.10
30.760	33326	1.05
30.765	30221	0.95
30.770	33342	1.05
30.775	31276	0.98
30.780	33516	1.05
30.785	31200	0.98
30.790	29488	0.93
30.795	35082	1.10
30.800	33893	1.07
30.805	33562	1.05
30.810	31847	1.00
30.815	32793	1.03
30.820	32470	1.02
30.825	31034	0.98
30.830	32516	1.02
30.835	34287	1.08
30.840	33092	1.04
30.845	35032	1.10
30.850	33431	1.05
30.855	33830	1.06
30.860	33918	1.07
30.865	29461	0.93
30.870	32009	1.01
30.875	30398	0.96
30.880	31173	0.98
30.885	33175	1.04
30.890	34712	1.09
30.895	32710	1.03
30.900	31575	0.99
30.905	33488	1.05
30.910	29693	0.93
30.915	32459	1.02
30.920	29804	0.94
30.925	32290	1.01
30.930	30100	0.95
30.935	32463	1.02
30.940	33076	1.04
30.945	31859	1.00
30.950	33386	1.05
30.955	30982	0.97
30.960	29792	0.94
30.965	30810	0.97
30.970	30402	0.96
30.975	31710	1.00
30.980	33162	1.04
30.985	32012	1.01
30.990	31697	1.00
30.995	29285	0.92
31.000	32593	1.02
31.005	33189	1.04
31.010	29055	0.91
31.015	30516	0.96
31.020	30437	0.96
31.025	32782	1.03
31.030	33436	1.05
31.035	33628	1.06
31.040	31918	1.00
31.045	32535	1.02
31.050	30684	0.96
31.055	30526	0.96
31.060	29777	0.94
31.065	29632	0.93
31.070	31075	0.98
31.075	30170	0.95
31.080	31534	0.99
31.085	31266	0.98
31.090	31739	1.00
31.095	32159	1.01
31.100	31634	0.99
31.105	32814	1.03
31.110	32088	1.01
31.115	30127	0.95
31.120	32086	1.01
31.125	32127	1.01
31.130	32781	1.03
31.135	30652	0.96
31.140	30407	0.96
31.145	30935	0.97
31.150	29128	0.92
31.155	31823	1.00
31.160	32319	1.02
31.165	32852	1.03
31.170	31555	0.99
31.175	33321	1.05
31.180	32258	1.01
31.185	33439	1.05
31.190	29423	0.92
31.195	33610	1.06
31.200	35035	1.10
31.205	31253	0.98
31.210	31445	0.99
31.215	33509	1.05
31.220	32333	1.02
31.225	32689	1.03
31.230	29705	0.93
31.235	30208	0.95
31.240	29940	0.94
31.245	30882	0.97
31.250	34459	1.08
31.255	30613	0.96
31.260	32831	1.03
31.265	30633	0.96
31.270	29197	0.92
31.275	33766	1.06
31.280	32691	1.03
31.285	30007	0.94
31.290	31088	0.98
31.295	33669	1.06
31.300	31673	1.00
31.305	30072	0.95
31.310	33176	1.04
31.315	30221	0.95
31.320	30563	0.96
31.325	32106	1.01
31.330	31741	1.00
31.335	30878	0.97
31.340	32003	1.01
31.345	26728	0.84
31.350	33251	1.04
31.355	30349	0.95
31.360	29957	0.94
31.365	33260	1.05
31.370	29362	0.92
31.375	31951	1.00
31.380	32783	1.03
31.385	31436	0.99
31.390	33316	1.05
31.395	30415	0.96
31.400	30908	0.97
31.405	33804	1.06
31.410	29810	0.94
31.415	32251	1.01
31.420	30690	0.96
31.425	30170	0.95
31.430	31293	0.98
31.435	31228	0.98
31.440	32100	1.01
31.445	32252	1.01
31.450	30954	0.97
31.455	30256	0.95
31.460	29169	0.92
31.465	33030	1.04
31.470	32665	1.03
31.475	29784	0.94
31.480	30151	0.95
31.485	31078	0.98
31.490	30506	0.96
31.495	31973	1.00
31.500	30893	0.97
31.505	30893	0.97
31.510	32350	1.02
31.515	29571	0.93
31.520	35825	1.13
31.525	30573	0.96
31.530	29776	0.94
31.535	31438	0.99
31.540	29018	0.91
31.545	30751	0.97
31.550	30310	0.95
31.555	31891	1.00
31.560	31993	1.01
31.565	30284	0.95
31.570	29391	0.92
31.575	30829	0.97
31.580	28024	0.88
31.585	30694	0.96
31.590	28639	0.90
31.595	34659	1.09
31.600	31822	1.00
31.605	31065	0.98
31.610	30394	0.96
31.615	29737	0.93
31.620	30217	0.95
31.625	30435	0.96
31.630	27630	0.87
31.635	30943	0.97
31.640	32143	1.01
31.645	29208	0.92
31.650	30156	0.95
31.655	33343	1.05
31.660	30014	0.94
31.665	29798	0.94
31.670	28094	0.88
31.675	30201	0.95
31.680	30469	0.96
31.685	27558	0.87
31.690	29900	0.94
31.695	28562	0.90
31.700	30590	0.96
31.705	28932	0.91
31.710	27935	0.88
31.715	32077	1.01
31.720	30383	0.95
31.725	31514	0.99
31.730	32906	1.03
31.735	28924	0.91
31.740	32980	1.04
31.745	30802	0.97
31.750	29688	0.93
31.755	30094	0.95
31.760	29655	0.93
31.765	33104	1.04
31.770	30161	0.95
31.775	28451	0.89
31.780	30324	0.95
31.785	29673	0.93
31.790	29417	0.92
31.795	31096	0.98
31.800	29163	0.92
31.805	30963	0.97
31.810	28732	0.90
31.815	31150	0.98
31.820	29373	0.92
31.825	30166	0.95
31.830	29856	0.94
31.835	30224	0.95
31.840	28959	0.91
31.845	28691	0.90
31.850	29399	0.92
31.855	32106	1.01
31.860	30949	0.97
31.865	31203	0.98
31.870	31362	0.99
31.875	29757	0.94
31.880	31142	0.98
31.885	33140	1.04
31.890	30574	0.96
31.895	31290	0.98
31.900	30192	0.95
31.905	31994	1.01
31.910	31453	0.99
31.915	29355	0.92
31.920	31510	0.99
31.925	30323	0.95
31.930	33188	1.04
31.935	31623	0.99
31.940	29397	0.92
31.945	30584	0.96
31.950	28268	0.89
31.955	35070	1.10
31.960	31850	1.00
31.965	29317	0.92
31.970	31409	0.99
31.975	32218	1.01
31.980	31197	0.98
31.985	31014	0.97
31.990	29052	0.91
31.995	30369	0.95
32.000	31409	0.99
32.005	28910	0.91
32.010	30450	0.96
32.015	29928	0.94
32.020	31822	1.00
32.025	30603	0.96
32.030	29389	0.92
32.035	30167	0.95
32.040	30058	0.94
32.045	29889	0.94
32.050	31491	0.99
32.055	31421	0.99
32.060	29905	0.94
32.065	30077	0.95
32.070	30387	0.95
32.075	31969	1.00
32.080	30378	0.95
32.085	32293	1.01
32.090	29650	0.93
32.095	30383	0.95
32.100	29041	0.91
32.105	29763	0.94
32.110	29575	0.93
32.115	30413	0.96
32.120	29693	0.93
32.125	32238	1.01
32.130	31406	0.99
32.135	31459	0.99
32.140	32102	1.01
32.145	28498	0.90
32.150	29771	0.94
32.155	30045	0.94
32.160	29680	0.93
32.165	31787	1.00
32.170	31231	0.98
32.175	30602	0.96
32.180	30513	0.96
32.185	29570	0.93
32.190	29990	0.94
32.195	30653	0.96
32.200	30323	0.95
32.205	30989	0.97
32.210	27595	0.87
32.215	31119	0.98
32.220	28364	0.89
32.225	30950	0.97
32.230	27662	0.87
32.235	27817	0.87
32.240	28834	0.91
32.245	28222	0.89
32.250	29205	0.92
32.255	29683	0.93
32.260	30322	0.95
32.265	31323	0.98
32.270	30061	0.94
32.275	29603	0.93
32.280	30724	0.97
32.285	31626	0.99
32.290	29352	0.92
32.295	29818	0.94
32.300	29144	0.92
32.305	31511	0.99
32.310	30234	0.95
32.315	30249	0.95
32.320	31712	1.00
32.325	29638	0.93
32.330	31721	1.00
32.335	31023	0.97
32.340	31092	0.98
32.345	28920	0.91
32.350	29829	0.94
32.355	29931	0.94
32.360	30676	0.96
32.365	27834	0.87
32.370	32373	1.02
32.375	32200	1.01
32.380	30876	0.97
32.385	30652	0.96
32.390	28458	0.89
32.395	30443	0.96
32.400	28995	0.91
32.405	30938	0.97
32.410	30136	0.95
32.415	29050	0.91
32.420	27247	0.86
32.425	29580	0.93
32.430	26922	0.85
32.435	31091	0.98
32.440	29444	0.93
32.445	29149	0.92
32.450	30027	0.94
32.455	30045	0.94
32.460	30589	0.96
32.465	30476	0.96
32.470	29104	0.91
32.475	30614	0.96
32.480	29787	0.94
32.485	31267	0.98
32.490	30487	0.96
32.495	30053	0.94
32.500	30177	0.95
32.505	28935	0.91
32.510	30595	0.96
32.515	30352	0.95
32.520	28502	0.90
32.525	29341	0.92
32.530	29075	0.91
32.535	32399	1.02
32.540	30233	0.95
32.545	28942	0.91
32.550	28792	0.90
32.555	28301	0.89
32.560	30290	0.95
32.565	30011	0.94
32.570	30524	0.96
32.575	30898	0.97
32.580	27160	0.85
32.585	33366	1.05
32.590	29195	0.92
32.595	30022	0.94
32.600	28400	0.89
32.605	30816	0.97
32.610	29504	0.93
32.615	28144	0.88
32.620	28426	0.89
32.625	29375	0.92
32.630	30403	0.96
32.635	29744	0.93
32.640	30063	0.94
32.645	28927	0.91
32.650	31170	0.98
32.655	31768	1.00
32.660	28166	0.89
32.665	29190	0.92
32.670	28176	0.89
32.675	28868	0.91
32.680	29274	0.92
32.685	28552	0.90
32.690	31481	0.99
32.695	29735	0.93
32.700	29137	0.92
32.705	30580	0.96
32.710	31192	0.98
32.715	28858	0.91
32.720	31438	0.99
32.725	27852	0.88
32.730	29864	0.94
32.735	25995	0.82
32.740	29147	0.92
32.745	29073	0.91
32.750	28591	0.90
32.755	26481	0.83
32.760	29058	0.91
32.765	28628	0.90
32.770	30647	0.96
32.775	27847	0.88
32.780	28505	0.90
32.785	29288	0.92
32.790	28875	0.91
32.795	30148	0.95
32.800	26224	0.82
32.805	28650	0.90
32.810	30740	0.97
32.815	26992	0.85
32.820	29436	0.93
32.825	29764	0.94
32.830	31459	0.99
32.835	28476	0.89
32.840	28302	0.89
32.845	27536	0.87
32.850	29765	0.94
32.855	27008	0.85
32.860	30265	0.95
32.865	28738	0.90
32.870	30366	0.95
32.875	29641	0.93
32.880	27701	0.87
32.885	29768	0.94
32.890	30163	0.95
32.895	28068	0.88
32.900	26453	0.83
32.905	26777	0.84
32.910	28059	0.88
32.915	29392	0.92
32.920	30443	0.96
32.925	28399	0.89
32.930	27847	0.88
32.935	29162	0.92
32.940	30106	0.95
32.945	29247	0.92
32.950	31717	1.00
32.955	28122	0.88
32.960	29184	0.92
32.965	30477	0.96
32.970	27318	0.86
32.975	29390	0.92
32.980	28340	0.89
32.985	27372	0.86
32.990	28897	0.91
32.995	26739	0.84
33.000	31287	0.98
33.005	27900	0.88
33.010	28550	0.90
33.015	30599	0.96
33.020	28805	0.91
33.025	30581	0.96
33.030	29210	0.92
33.035	28049	0.88
33.040	28072	0.88
33.045	27536	0.87
33.050	27344	0.86
33.055	28427	0.89
33.060	30103	0.95
33.065	29078	0.91
33.070	27352	0.86
33.075	29039	0.91
33.080	30123	0.95
33.085	28147	0.88
33.090	29709	0.93
33.095	27782	0.87
33.100	29219	0.92
33.105	27213	0.86
33.110	29843	0.94
33.115	28465	0.89
33.120	27468	0.86
33.125	27985	0.88
33.130	27585	0.87
33.135	26789	0.84
33.140	28139	0.88
33.145	30310	0.95
33.150	27515	0.86
33.155	29216	0.92
33.160	28043	0.88
33.165	26508	0.83
33.170	28619	0.90
33.175	24377	0.77
33.180	27384	0.86
33.185	28170	0.89
33.190	29734	0.93
33.195	27709	0.87
33.200	29350	0.92
33.205	29078	0.91
33.210	26316	0.83
33.215	28170	0.89
33.220	26800	0.84
33.225	29101	0.91
33.230	29631	0.93
33.235	29397	0.92
33.240	27977	0.88
33.245	27543	0.87
33.250	27568	0.87
33.255	27572	0.87
33.260	29544	0.93
33.265	29646	0.93
33.270	27846	0.88
33.275	27935	0.88
33.280	26936	0.85
33.285	27585	0.87
33.290	29031	0.91
33.295	29764	0.94
33.300	29493	0.93
33.305	27589	0.87
33.310	29306	0.92
33.315	27007	0.85
33.320	28215	0.89
33.325	28714	0.90
33.330	28393	0.89
33.335	29817	0.94
33.340	25171	0.79
33.345	26528	0.83
33.350	29437	0.93
33.355	27769	0.87
33.360	30215	0.95
33.365	28242	0.89
33.370	25703	0.81
33.375	30281	0.95
33.380	26214	0.82
33.385	28636	0.90
33.390	27391	0.86
33.395	27153	0.85
33.400	28220	0.89
33.405	29017	0.91
33.410	27831	0.87
33.415	28016	0.88
33.420	27260	0.86
33.425	28713	0.90
33.430	29301	0.92
33.435	27008	0.85
33.440	26576	0.84
33.445	27982	0.88
33.450	26130	0.82
33.455	28004	0.88
33.460	27189	0.85
33.465	27783	0.87
33.470	29178	0.92
33.475	31698	1.00
33.480	26334	0.83
33.485	27174	0.85
33.490	26247	0.82
33.495	28666	0.90
33.500	26249	0.82
33.505	28428	0.89
33.510	27900	0.88
33.515	25608	0.80
33.520	28443	0.89
33.525	25764	0.81
33.530	28125	0.88
33.535	27020	0.85
33.540	27422	0.86
33.545	27027	0.85
33.550	26467	0.83
33.555	31173	0.98
33.560	27849	0.88
33.565	25953	0.82
33.570	24862	0.78
33.575	26685	0.84
33.580	25954	0.82
33.585	28536	0.90
33.590	24379	0.77
33.595	29053	0.91
33.600	27335	0.86
33.605	26348	0.83
33.610	28173	0.89
33.615	25597	0.80
33.620	26263	0.83
33.625	28784	0.90
33.630	25756	0.81
33.635	26761	0.84
33.640	26828	0.84
33.645	29441	0.93
33.650	29358	0.92
33.655	26190	0.82
33.660	28992	0.91
33.665	28152	0.88
33.670	30409	0.96
33.675	28103	0.88
33.680	29510	0.93
33.685	29525	0.93
33.690	29351	0.92
33.695	26087	0.82
33.700	29422	0.92
33.705	27930	0.88
33.710	29041	0.91
33.715	28685	0.90
33.720	28112	0.88
33.725	28024	0.88
33.730	27053	0.85
33.735	26984	0.85
33.740	25968	0.82
33.745	24668	0.78
33.750	27648	0.87
33.755	27655	0.87
33.760	25190	0.79
33.765	26588	0.84
33.770	24086	0.76
33.775	27064	0.85
33.780	25931	0.81
33.785	26822	0.84
33.790	27841	0.87
33.795	26262	0.83
33.800	29443	0.93
33.805	27963	0.88
33.810	26057	0.82
33.815	26986	0.85
33.820	27538	0.87
33.825	26057	0.82
33.830	30022	0.94
33.835	25679	0.81
33.840	28101	0.88
33.845	29294	0.92
33.850	24848	0.78
33.855	28996	0.91
33.860	26393	0.83
33.865	27356	0.86
33.870	28394	0.89
33.875	25320	0.80
33.880	27003	0.85
33.885	25077	0.79
33.890	29194	0.92
33.895	26859	0.84
33.900	26936	0.85
33.905	29571	0.93
33.910	26563	0.83
33.915	27079	0.85
33.920	26162	0.82
33.925	27617	0.87
33.930	30067	0.94
33.935	27718	0.87
33.940	24882	0.78
33.945	27101	0.85
33.950	26539	0.83
33.955	25463	0.80
33.960	29204	0.92
33.965	26225	0.82
33.970	29818	0.94
33.975	28553	0.90
33.980	27415	0.86
33.985	27111	0.85
33.990	24283	0.76
33.995	28628	0.90
34.000	27753	0.87
34.005	26926	0.85
34.010	29245	0.92
34.015	28257	0.89
34.020	27509	0.86
34.025	27081	0.85
34.030	24932	0.78
34.035	27711	0.87
34.040	27570	0.87
34.045	29164	0.92
34.050	26798	0.84
34.055	23376	0.73
34.060	26970	0.85
34.065	27929	0.88
34.070	27445	0.86
34.075	26856	0.84
34.080	25301	0.80
34.085	27860	0.88
34.090	28404	0.89
34.095	24770	0.78
34.100	29252	0.92
34.105	27131	0.85
34.110	27547	0.87
34.115	28296	0.89
34.120	24308	0.76
34.125	26173	0.82
34.130	26935	0.85
34.135	26427	0.83
34.140	27500	0.86
34.145	23542	0.74
34.150	27075	0.85
34.155	26921	0.85
34.160	25442	0.80
34.165	26034	0.82
34.170	25563	0.80
34.175	28156	0.88
34.180	27085	0.85
34.185	27155	0.85
34.190	27809	0.87
34.195	23493	0.74
34.200	27439	0.86
34.205	30000	0.94
34.210	21850	0.69
34.215	27281	0.86
34.220	25028	0.79
34.225	25970	0.82
34.230	27855	0.88
34.235	24992	0.79
34.240	28796	0.90
34.245	26257	0.83
34.250	28692	0.90
34.255	27573	0.87
34.260	26877	0.84
34.265	26439	0.83
34.270	26141	0.82
34.275	27308	0.86
34.280	26875	0.84
34.285	25179	0.79
34.290	26844	0.84
34.295	26566	0.83
34.300	25045	0.79
34.305	26398	0.83
34.310	24748	0.78
34.315	27630	0.87
34.320	27216	0.86
34.325	25910	0.81
34.330	27614	0.87
34.335	25457	0.80
34.340	27426	0.86
34.345	26613	0.84
34.350	26128	0.82
34.355	26921	0.85
34.360	26996	0.85
34.365	24271	0.76
34.370	27039	0.85
34.375	27158	0.85
34.380	25373	0.80
34.385	27011	0.85
34.390	24892	0.78
34.395	26929	0.85
34.400	26962	0.85
34.405	26009	0.82
34.410	26732	0.84
34.415	25163	0.79
34.420	28113	0.88
34.425	28089	0.88
34.430	27733	0.87
34.435	27211	0.86
34.440	25957	0.82
34.445	27533	0.87
34.450	27632	0.87
34.455	27682	0.87
34.460	27825	0.87
34.465	26057	0.82
34.470	26704	0.84
34.475	26287	0.83
34.480	24700	0.78
34.485	27678	0.87
34.490	25801	0.81
34.495	24925	0.78
34.500	27584	0.87
34.505	25954	0.82
34.510	27569	0.87
34.515	24455	0.77
34.520	26114	0.82
34.525	25670	0.81
34.530	24485	0.77
34.535	27595	0.87
34.540	27161	0.85
34.545	24513	0.77
34.550	27090	0.85
34.555	25808	0.81
34.560	24287	0.76
34.565	24599	0.77
34.570	27137	0.85
34.575	27440	0.86
34.580	24594	0.77
34.585	26933	0.85
34.590	27436	0.86
34.595	26208	0.82
34.600	27247	0.86
34.605	26001	0.82
34.610	27632	0.87
34.615	25890	0.81
34.620	24584	0.77
34.625	26932	0.85
34.630	25834	0.81
34.635	23511	0.74
34.640	26678	0.84
34.645	25785	0.81
34.650	28517	0.90
34.655	28549	0.90
34.660	25315	0.80
34.665	28155	0.88
34.670	27806	0.87
34.675	25176	0.79
34.680	28762	0.90
34.685	27140	0.85
34.690	24981	0.79
34.695	27431	0.86
34.700	25828	0.81
34.705	27268	0.86
34.710	26612	0.84
34.715	24929	0.78
34.720	27754	0.87
34.725	24218	0.76
34.730	27850	0.88
34.735	24962	0.78
34.740	22750	0.71
34.745	27034	0.85
34.750	26800	0.84
34.755	27205	0.85
34.760	27944	0.88
34.765	25543	0.80
34.770	27468	0.86
34.775	26203	0.82
34.780	24839	0.78
34.785	27767	0.87
34.790	23165	0.73
34.795	26248	0.82
34.800	27376	0.86
34.805	25324	0.80
34.810	28633	0.90
34.815	24963	0.78
34.820	25732	0.81
34.825	23958	0.75
34.830	23461	0.74
34.835	25339	0.80
34.840	25226	0.79
34.845	23236	0.73
34.850	28038	0.88
34.855	24896	0.78
34.860	25264	0.79
34.865	24901	0.78
34.870	25152	0.79
34.875	26661	0.84
34.880	25205	0.79
34.885	26348	0.83
34.890	28005	0.88
34.895	25412	0.80
34.900	25304	0.80
34.905	25525	0.80
34.910	26394	0.83
34.915	25478	0.80
34.920	25518	0.80
34.925	25458	0.80
34.930	25114	0.79
34.935	24507	0.77
34.940	26116	0.82
34.945	23506	0.74
34.950	25914	0.81
34.955	24459	0.77
34.960	26530	0.83
34.965	25175	0.79
34.970	25308	0.80
34.975	26959	0.85
34.980	27650	0.87
34.985	24266	0.76
34.990	27399	0.86
34.995	27261	0.86
35.000	23202	0.73
35.005	27950	0.88
35.010	24421	0.77
35.015	27954	0.88
35.020	26778	0.84
35.025	23276	0.73
35.030	26052	0.82
35.035	27012	0.85
35.040	26604	0.84
35.045	25579	0.80
35.050	24210	0.76
35.055	26056	0.82
35.060	24030	0.76
35.065	25617	0.81
35.070	26432	0.83
35.075	25447	0.80
35.080	27267	0.86
35.085	24857	0.78
35.090	26126	0.82
35.095	26650	0.84
35.100	22633	0.71
35.105	23456	0.74
35.110	21177	0.67
35.115	24093	0.76
35.120	25165	0.79
35.125	24912	0.78
35.130	27537	0.87
35.135	26504	0.83
35.140	25302	0.80
35.145	26730	0.84
35.150	23633	0.74
35.155	27145	0.85
35.160	26487	0.83
35.165	24610	0.77
35.170	25641	0.81
35.175	25388	0.80
35.180	27049	0.85
35.185	25866	0.81
35.190	23901	0.75
35.195	26157	0.82
35.200	26406	0.83
35.205	25275	0.79
35.210	25241	0.79
35.215	23125	0.73
35.220	24554	0.77
35.225	24199	0.76
35.230	24166	0.76
35.235	23049	0.72
35.240	25148	0.79
35.245	24296	0.76
35.250	25036	0.79
35.255	24230	0.76
35.260	23109	0.73
35.265	24871	0.78
35.270	25325	0.80
35.275	26470	0.83
35.280	25267	0.79
35.285	26128	0.82
35.290	26298	0.83
35.295	22248	0.70
35.300	25115	0.79
35.305	24324	0.76
35.310	23310	0.73
35.315	26786	0.84
35.320	22800	0.72
35.325	27652	0.87
35.330	23910	0.75
35.335	23740	0.75
35.340	26064	0.82
35.345	23283	0.73
35.350	26447	0.83
35.355	25371	0.80
35.360	23432	0.74
35.365	25784	0.81
35.370	22890	0.72
35.375	24501	0.77
35.380	26564	0.83
35.385	24568	0.77
35.390	24557	0.77
35.395	24101	0.76
35.400	26293	0.83
35.405	23756	0.75
35.410	24448	0.77
35.415	24735	0.78
35.420	23911	0.75
35.425	23698	0.74
35.430	24347	0.77
35.435	26134	0.82
35.440	24343	0.77
35.445	23902	0.75
35.450	24201	0.76
35.455	23881	0.75
35.460	20741	0.65
35.465	25085	0.79
35.470	25680	0.81
35.475	24309	0.76
35.480	25497	0.80
35.485	23255	0.73
35.490	23566	0.74
35.495	25338	0.80
35.500	24555	0.77
35.505	25628	0.81
35.510	23471	0.74
35.515	28212	0.89
35.520	25988	0.82
35.525	25398	0.80
35.530	25300	0.80
35.535	23464	0.74
35.540	24163	0.76
35.545	25037	0.79
35.550	23050	0.72
35.555	26100	0.82
35.560	23229	0.73
35.565	24880	0.78
35.570	25097	0.79
35.575	22065	0.69
35.580	22579	0.71
35.585	24862	0.78
35.590	25320	0.80
35.595	26947	0.85
35.600	24891	0.78
35.605	26619	0.84
35.610	23658	0.74
35.615	23862	0.75
35.620	23441	0.74
35.625	23095	0.73
35.630	23018	0.72
35.635	23494	0.74
35.640	22000	0.69
35.645	26234	0.82
35.650	23663	0.74
35.655	23676	0.74
35.660	24340	0.76
35.665	22558	0.71
35.670	24752	0.78
35.675	24064	0.76
35.680	22352	0.70
35.685	24068	0.76
35.690	22694	0.71
35.695	23633	0.74
35.700	23390	0.74
35.705	24220	0.76
35.710	25016	0.79
35.715	25114	0.79
35.720	24713	0.78
35.725	23826	0.75
35.730	23208	0.73
35.735	23478	0.74
35.740	22670	0.71
35.745	24961	0.78
35.750	24389	0.77
35.755	23310	0.73
35.760	23629	0.74
35.765	22568	0.71
35.770	23792	0.75
35.775	24642	0.77
35.780	23656	0.74
35.785	23257	0.73
35.790	22859	0.72
35.795	21704	0.68
35.800	25528	0.80
35.805	24162	0.76
35.810	22208	0.70
35.815	24650	0.77
35.820	23906	0.75
35.825	24966	0.78
35.830	21763	0.68
35.835	24208	0.76
35.840	23604	0.74
35.845	24214	0.76
35.850	23013	0.72
35.855	25744	0.81
35.860	23797	0.75
35.865	23849	0.75
35.870	23203	0.73
35.875	24288	0.76
35.880	23148	0.73
35.885	21727	0.68
35.890	25582	0.80
35.895	26351	0.83
35.900	26767	0.84
35.905	25686	0.81
35.910	26937	0.85
35.915	24898	0.78
35.920	26176	0.82
35.925	23439	0.74
35.930	23349	0.73
35.935	23576	0.74
35.940	22730	0.71
35.945	24457	0.77
35.950	24150	0.76
35.955	23034	0.72
35.960	25702	0.81
35.965	23151	0.73
35.970	24721	0.78
35.975	23344	0.73
35.980	21041	0.66
35.985	22144	0.70
35.990	21727	0.68
35.995	23726	0.75
36.000	23923	0.75
36.005	23546	0.74
36.010	24303	0.76
36.015	22358	0.70
36.020	24193	0.76
36.025	23288	0.73
36.030	25272	0.79
36.035	23405	0.74
36.040	21041	0.66
36.045	24902	0.78
36.050	24501	0.77
36.055	22394	0.70
36.060	21442	0.67
36.065	21419	0.67
36.070	22606	0.71
36.075	20465	0.64
36.080	21081	0.66
36.085	24525	0.77
36.090	24512	0.77
36.095	24518	0.77
36.100	25841	0.81
36.105	25228	0.79
36.110	23960	0.75
36.115	24355	0.77
36.120	25198	0.79
36.125	21854	0.69
36.130	22576	0.71
36.135	20998	0.66
36.140	23551	0.74
36.145	21128	0.66
36.150	24322	0.76
36.155	22590	0.71
36.160	20252	0.64
36.165	23201	0.73
36.170	23545	0.74
36.175	25329	0.80
36.180	23334	0.73
36.185	22409	0.70
36.190	23368	0.73
36.195	23256	0.73
36.200	21631	0.68
36.205	25183	0.79
36.210	20116	0.63
36.215	22818	0.72
36.220	24296	0.76
36.225	22198	0.70
36.230	24685	0.78
36.235	24121	0.76
36.240	23457	0.74
36.245	24001	0.75
36.250	21671	0.68
36.255	23219	0.73
36.260	22883	0.72
36.265	23939	0.75
36.270	25313	0.80
36.275	23341	0.73
36.280	24357	0.77
36.285	21971	0.69
36.290	21508	0.68
36.295	23324	0.73
36.300	23246	0.73
36.305	20127	0.63
36.310	24327	0.76
36.315	21303	0.67
36.320	22508	0.71
36.325	22875	0.72
36.330	22552	0.71
36.335	25756	0.81
36.340	23279	0.73
36.345	24543	0.77
36.350	22425	0.70
36.355	17986	0.57
36.360	22571	0.71
36.365	20685	0.65
36.370	23737	0.75
36.375	20400	0.64
36.380	20928	0.66
36.385	23298	0.73
36.390	23623	0.74
36.395	23770	0.75
36.400	22832	0.72
36.405	22818	0.72
36.410	22190	0.70
36.415	24540	0.77
36.420	22537	0.71
36.425	21620	0.68
36.430	20921	0.66
36.435	21141	0.66
36.440	23159	0.73
36.445	22406	0.70
36.450	23020	0.72
36.455	20941	0.66
36.460	24332	0.76
36.465	24024	0.75
36.470	20220	0.64
36.475	23382	0.73
36.480	20849	0.66
36.485	22566	0.71
36.490	23023	0.72
36.495	21872	0.69
36.500	23433	0.74
36.505	22442	0.71
36.510	21702	0.68
36.515	23353	0.73
36.520	20521	0.64
36.525	24718	0.78
36.530	23875	0.75
36.535	23672	0.74
36.540	24666	0.78
36.545	21205	0.67
36.550	23042	0.72
36.555	22850	0.72
36.560	21151	0.66
36.565	24076	0.76
36.570	23193	0.73
36.575	21430	0.67
36.580	24679	0.78
36.585	19468	0.61
36.590	22383	0.70
36.595	23699	0.74
36.600	21311	0.67
36.605	20480	0.64
36.610	21550	0.68
36.615	20747	0.65
36.620	21945	0.69
36.625	23180	0.73
36.630	22662	0.71
36.635	20954	0.66
36.640	20717	0.65
36.645	22157	0.70
36.650	21168	0.67
36.655	23205	0.73
36.660	19932	0.63
36.665	22215	0.70
36.670	23067	0.72
36.675	21383	0.67
36.680	22446	0.71
36.685	21357	0.67
36.690	22893	0.72
36.695	21471	0.67
36.700	19000	0.60
36.705	21925	0.69
36.710	22432	0.70
36.715	21128	0.66
36.720	21176	0.67
36.725	21192	0.67
36.730	22129	0.70
36.735	22053	0.69
36.740	20594	0.65
36.745	20177	0.63
36.750	24243	0.76
36.755	24086	0.76
36.760	21036	0.66
36.765	19579	0.62
36.770	24380	0.77
36.775	21607	0.68
36.780	20890	0.66
36.785	23781	0.75
36.790	21935	0.69
36.795	22165	0.70
36.800	20925	0.66
36.805	20661	0.65
36.810	23245	0.73
36.815	21796	0.68
36.820	22254	0.70
36.825	22948	0.72
36.830	19968	0.63
36.835	21468	0.67
36.840	23002	0.72
36.845	19438	0.61
36.850	21341	0.67
36.855	22063	0.69
36.860	22994	0.72
36.865	21907	0.69
36.870	21141	0.66
36.875	23140	0.73
36.880	20457	0.64
36.885	21373	0.67
36.890	23869	0.75
36.895	22018	0.69
36.900	22595	0.71
36.905	21481	0.68
36.910	22169	0.70
36.915	22647	0.71
36.920	21671	0.68
36.925	23536	0.74
36.930	20947	0.66
36.935	20361	0.64
36.940	22119	0.70
36.945	22247	0.70
36.950	23064	0.72
36.955	22188	0.70
36.960	18892	0.59
36.965	22152	0.70
36.970	20355	0.64
36.975	23876	0.75
36.980	21716	0.68
36.985	21140	0.66
36.990	21858	0.69
36.995	22154	0.70
37.000	21821	0.69
37.005	21335	0.67
37.010	20498	0.64
37.015	22584	0.71
37.020	22605	0.71
37.025	21945	0.69
37.030	21436	0.67
37.035	22589	0.71
37.040	20407	0.64
37.045	21237	0.67
37.050	22027	0.69
37.055	21201	0.67
37.060	20132	0.63
37.065	23988	0.75
37.070	22976	0.72
37.075	23184	0.73
37.080	23060	0.72
37.085	22026	0.69
37.090	21551	0.68
37.095	20128	0.63
37.100	19718	0.62
37.105	22839	0.72
37.110	21311	0.67
37.115	20958	0.66
37.120	20756	0.65
37.125	17375	0.55
37.130	20667	0.65
37.135	23208	0.73
37.140	20895	0.66
37.145	21624	0.68
37.150	21130	0.66
37.155	19146	0.60
37.160	22663	0.71
37.165	19406	0.61
37.170	23056	0.72
37.175	21988	0.69
37.180	21814	0.69
37.185	23138	0.73
37.190	22616	0.71
37.195	21815	0.69
37.200	23447	0.74
37.205	17148	0.54
37.210	20651	0.65
37.215	22018	0.69
37.220	21822	0.69
37.225	21942	0.69
37.230	21797	0.68
37.235	24083	0.76
37.240	21071	0.66
37.245	20725	0.65
37.250	22217	0.70
37.255	21422	0.67
37.260	22549	0.71
37.265	18971	0.60
37.270	21561	0.68
37.275	23572	0.74
37.280	18980	0.60
37.285	22253	0.70
37.290	21083	0.66
37.295	19097	0.60
37.300	24676	0.78
37.305	19698	0.62
37.310	18826	0.59
37.315	20664	0.65
37.320	19722	0.62
37.325	22742	0.71
37.330	20919	0.66
37.335	19948	0.63
37.340	22095	0.69
37.345	19059	0.60
37.350	21199	0.67
37.355	21045	0.66
37.360	19536	0.61
37.365	22668	0.71
37.370	23235	0.73
37.375	21169	0.67
37.380	20616	0.65
37.385	18720	0.59
37.390	22805	0.72
37.395	18796	0.59
37.400	20393	0.64
37.405	21560	0.68
37.410	21340	0.67
37.415	23342	0.73
37.420	21700	0.68
37.425	19499	0.61
37.430	20800	0.65
37.435	18131	0.57
37.440	22520	0.71
37.445	20466	0.64
37.450	19738	0.62
37.455	20556	0.65
37.460	21468	0.67
37.465	21260	0.67
37.470	21083	0.66
37.475	19752	0.62
37.480	20361	0.64
37.485	21321	0.67
37.490	17176	0.54
37.495	21826	0.69
37.500	18891	0.59
37.505	20025	0.63
37.510	23188	0.73
37.515	20205	0.63
37.520	21750	0.68
37.525	18634	0.59
37.530	21794	0.68
37.535	22819	0.72
37.540	18572	0.58
37.545	19427	0.61
37.550	18263	0.57
37.555	20021	0.63
37.560	23700	0.74
37.565	18575	0.58
37.570	19249	0.60
37.575	18491	0.58
37.580	21063	0.66
37.585	19988	0.63
37.590	19155	0.60
37.595	20588	0.65
37.600	22130	0.70
37.605	20232	0.64
37.610	21820	0.69
37.615	20699	0.65
37.620	19322	0.61
37.625	19704	0.62
37.630	17392	0.55
37.635	20416	0.64
37.640	19184	0.60
37.645	19692	0.62
37.650	20230	0.64
37.655	20480	0.64
37.660	20615	0.65
37.665	22787	0.72
37.670	20628	0.65
37.675	21457	0.67
37.680	20168	0.63
37.685	20686	0.65
37.690	19462	0.61
37.695	20158	0.63
37.700	19679	0.62
37.705	18476	0.58
37.710	20596	0.65
37.715	19525	0.61
37.720	22311	0.70
37.725	20722	0.65
37.730	19624	0.62
37.735	21227	0.67
37.740	21201	0.67
37.745	19186	0.60
37.750	18875	0.59
37.755	18143	0.57
37.760	20638	0.65
37.765	21030	0.66
37.770	19178	0.60
37.775	19621	0.62
37.780	19952	0.63
37.785	19115	0.60
37.790	18144	0.57
37.795	19872	0.62
37.800	22853	0.72
37.805	21867	0.69
37.810	20665	0.65
37.815	22439	0.71
37.820	21138	0.66
37.825	21173	0.67
37.830	22102	0.69
37.835	20753	0.65
37.840	19609	0.62
37.845	19021	0.60
37.850	20118	0.63
37.855	20215	0.64
37.860	19778	0.62
37.865	18703	0.59
37.870	22710	0.71
37.875	18195	0.57
37.880	22086	0.69
37.885	17237	0.54
37.890	22411	0.70
37.895	21835	0.69
37.900	18363	0.58
37.905	20584	0.65
37.910	18467	0.58
37.915	20593	0.65
37.920	19501	0.61
37.925	18819	0.59
37.930	19111	0.60
37.935	20081	0.63
37.940	22423	0.70
37.945	19291	0.61
37.950	18673	0.59
37.955	19728	0.62
37.960	19698	0.62
37.965	21050	0.66
37.970	21440	0.67
37.975	21011	0.66
37.980	22403	0.70
37.985	18080	0.57
37.990	21688	0.68
37.995	21474	0.67
38.000	20832	0.65
38.005	21241	0.67
38.010	21012	0.66
38.015	19738	0.62
38.020	21081	0.66
38.025	17799	0.56
38.030	19946	0.63
38.035	18616	0.59
38.040	20102	0.63
38.045	20567	0.65
38.050	18824	0.59
38.055	19331	0.61
38.060	20237	0.64
38.065	16619	0.52
38.070	19589	0.62
38.075	21687	0.68
38.080	21059	0.66
38.085	19664	0.62
38.090	18577	0.58
38.095	22915	0.72
38.100	22167	0.70
38.105	16498	0.52
38.110	20871	0.66
38.115	18229	0.57
38.120	19776	0.62
38.125	21848	0.69
38.130	17957	0.56
38.135	18272	0.57
38.140	19124	0.60
38.145	22707	0.71
38.150	21805	0.69
38.155	20554	0.65
38.160	19922	0.63
38.165	18368	0.58
38.170	18597	0.58
38.175	20316	0.64
38.180	17763	0.56
38.185	19909	0.63
38.190	20987	0.66
38.195	19432	0.61
38.200	21831	0.69
38.205	20615	0.65
38.210	20940	0.66
38.215	21342	0.67
38.220	19254	0.61
38.225	20657	0.65
38.230	21759	0.68
38.235	22141	0.70
38.240	20932	0.66
38.245	17421	0.55
38.250	22412	0.70
38.255	20125	0.63
38.260	17134	0.54
38.265	20342	0.64
38.270	16987	0.53
38.275	19629	0.62
38.280	21855	0.69
38.285	17702	0.56
38.290	17020	0.53
38.295	19972	0.63
38.300	19881	0.62
38.305	20726	0.65
38.310	15013	0.47
38.315	20915	0.66
38.320	21643	0.68
38.325	19048	0.60
38.330	21084	0.66
38.335	19703	0.62
38.340	22310	0.70
38.345	22386	0.70
38.350	17337	0.54
38.355	21915	0.69
38.360	20790	0.65
38.365	17398	0.55
38.370	20784	0.65
38.375	19602	0.62
38.380	21831	0.69
38.385	19554	0.61
38.390	19976	0.63
38.395	20786	0.65
38.400	20160	0.63
38.405	21557	0.68
38.410	21164	0.67
38.415	21287	0.67
38.420	22134	0.70
38.425	20208	0.64
38.430	21379	0.67
38.435	19625	0.62
38.440	19400	0.61
38.445	19623	0.62
38.450	20486	0.64
38.455	19056	0.60
38.460	17648	0.55
38.465	17487	0.55
38.470	19102	0.60
38.475	17707	0.56
38.480	17679	0.56
38.485	18201	0.57
38.490	17929	0.56
38.495	19158	0.60
38.500	21595	0.68
38.505	19873	0.62
38.510	17728	0.56
38.515	19576	0.62
38.520	17247	0.54
38.525	21501	0.68
38.530	18559	0.58
38.535	21023	0.66
38.540	17948	0.56
38.545	20178	0.63
38.550	19283	0.61
38.555	18992	0.60
38.560	19594	0.62
38.565	11021	0.35
38.570	18140	0.57
38.575	21207	0.67
38.580	19107	0.60
38.585	19488	0.61
38.590	18554	0.58
38.595	17050	0.54
38.600	20401	0.64
38.605	18965	0.60
38.610	20012	0.63
38.615	18206	0.57
38.620	18576	0.58
38.625	17342	0.54
38.630	19127	0.60
38.635	18793	0.59
38.640	20418	0.64
38.645	19722	0.62
38.650	20375	0.64
38.655	20404	0.64
38.660	17104	0.54
38.665	21169	0.67
38.670	16885	0.53
38.675	18792	0.59
38.680	20688	0.65
38.685	17405	0.55
38.690	19748	0.62
38.695	20686	0.65
38.700	17932	0.56
38.705	20198	0.63
38.710	15950	0.50
38.715	19553	0.61
38.720	21907	0.69
38.725	20001	0.63
38.730	21314	0.67
38.735	19368	0.61
38.740	19111	0.60
38.745	18671	0.59
38.750	18469	0.58
38.755	18539	0.58
38.760	19741	0.62
38.765	17917	0.56
38.770	17849	0.56
38.775	20248	0.64
38.780	16828	0.53
38.785	17894	0.56
38.790	19400	0.61
38.795	20619	0.65
38.800	18805	0.59
38.805	19579	0.62
38.810	17989	0.57
38.815	16618	0.52
38.820	18655	0.59
38.825	20662	0.65
38.830	17874	0.56
38.835	20391	0.64
38.840	20360	0.64
38.845	19176	0.60
38.850	21776	0.68
38.855	18149	0.57
38.860	16937	0.53
38.865	20161	0.63
38.870	18554	0.58
38.875	22424	0.70
38.880	18126	0.57
38.885	20445	0.64
38.890	20829	0.65
38.895	17259	0.54
38.900	18594	0.58
38.905	18809	0.59
38.910	19340	0.61
38.915	20313	0.64
38.920	19109	0.60
38.925	18714	0.59
38.930	20764	0.65
38.935	19429	0.61
38.940	19887	0.62
38.945	20903	0.66
38.950	19339	0.61
38.955	20007	0.63
38.960	18205	0.57
38.965	18480	0.58
38.970	18006	0.57
38.975	18306	0.58
38.980	22437	0.71
38.985	17573	0.55
38.990	18690	0.59
38.995	20710	0.65
39.000	19204	0.60
39.005	20571	0.65
39.010	19849	0.62
39.015	19081	0.60
39.020	20983	0.66
39.025	21300	0.67
39.030	20161	0.63
39.035	19529	0.61
39.040	19701	0.62
39.045	20306	0.64
39.050	19053	0.60
39.055	20659	0.65
39.060	18468	0.58
39.065	15268	0.48
39.070	17760	0.56
39.075	19828	0.62
39.080	20056	0.63
39.085	21474	0.67
39.090	17819	0.56
39.095	16954	0.53
39.100	16668	0.52
39.105	17463	0.55
39.110	22498	0.71
39.115	17062	0.54
39.120	19777	0.62
39.125	18737	0.59
39.130	19732	0.62
39.135	19610	0.62
39.140	13689	0.43
39.145	17511	0.55
39.150	19699	0.62
39.155	18726	0.59
39.160	19547	0.61
39.165	17495	0.55
39.170	19827	0.62
39.175	20829	0.65
39.180	20170	0.63
39.185	17176	0.54
39.190	17699	0.56
39.195	17073	0.54
39.200	20650	0.65
39.205	18240	0.57
39.210	19311	0.61
39.215	20527	0.65
39.220	18034	0.57
39.225	19079	0.60
39.230	18520	0.58
39.235	18607	0.58
39.240	18939	0.60
39.245	15772	0.50
39.250	18355	0.58
39.255	18689	0.59
39.260	16332	0.51
39.265	20460	0.64
39.270	18917	0.59
39.275	20895	0.66
39.280	19867	0.62
39.285	16145	0.51
39.290	19450	0.61
39.295	18621	0.59
39.300	19964	0.63
39.305	20408	0.64
39.310	17088	0.54
39.315	20854	0.66
39.320	18442	0.58
39.325	19155	0.60
39.330	19329	0.61
39.335	17469	0.55
39.340	18143	0.57
39.345	16291	0.51
39.350	18687	0.59
39.355	18492	0.58
39.360	15838	0.50
39.365	19621	0.62
39.370	18919	0.59
39.375	18197	0.57
39.380	18450	0.58
39.385	16155	0.51
39.390	18606	0.58
39.395	18071	0.57
39.400	18672	0.59
39.405	18542	0.58
39.410	17473	0.55
39.415	16726	0.53
39.420	19292	0.61
39.425	19403	0.61
39.430	20177	0.63
39.435	18001	0.57
39.440	17373	0.55
39.445	19822	0.62
39.450	16359	0.51
39.455	19841	0.62
39.460	18804	0.59
39.465	17418	0.55
39.470	20153	0.63
39.475	17331	0.54
39.480	17301	0.54
39.485	17583	0.55
39.490	17528	0.55
39.495	16972	0.53
39.500	16082	0.51
39.505	17138	0.54
39.510	19242	0.60
39.515	15203	0.48
39.520	20348	0.64
39.525	18293	0.57
39.530	19171	0.60
39.535	18167	0.57
39.540	18181	0.57
39.545	15362	0.48
39.550	17446	0.55
39.555	17290	0.54
39.560	21741	0.68
39.565	18307	0.58
39.570	18195	0.57
39.575	17900	0.56
39.580	17875	0.56
39.585	20245	0.64
39.590	18302	0.58
39.595	18084	0.57
39.600	17713	0.56
39.605	17696	0.56
39.610	16474	0.52
39.615	15307	0.48
39.620	21667	0.68
39.625	18322	0.58
39.630	13957	0.44
39.635	18512	0.58
39.640	17405	0.55
39.645	16166	0.51
39.650	16813	0.53
39.655	18537	0.58
39.660	18953	0.60
39.665	20226	0.64
39.670	16905	0.53
39.675	18656	0.59
39.680	18622	0.59
39.685	17600	0.55
39.690	16726	0.53
39.695	14497	0.46
39.700	19873	0.62
39.705	18298	0.58
39.710	18813	0.59
39.715	20120	0.63
39.720	19268	0.61
39.725	18658	0.59
39.730	19640	0.62
39.735	16165	0.51
39.740	19906	0.63
39.745	18150	0.57
39.750	19066	0.60
39.755	19611	0.62
39.760	17658	0.55
39.765	18364	0.58
39.770	18345	0.58
39.775	19275	0.61
39.780	18364	0.58
39.785	16440	0.52
39.790	17025	0.54
39.795	18273	0.57
39.800	18963	0.60
39.805	20145	0.63
39.810	17470	0.55
39.815	18908	0.59
39.820	19634	0.62
39.825	16562	0.52
39.830	18478	0.58
39.835	17308	0.54
39.840	14719	0.46
39.845	19777	0.62
39.850	17582	0.55
39.855	18413	0.58
39.860	17430	0.55
39.865	15869	0.50
39.870	17286	0.54
39.875	16966	0.53
39.880	18102	0.57
39.885	19935	0.63
39.890	18043	0.57
39.895	17300	0.54
39.900	19472	0.61
39.905	17803	0.56
39.910	20029	0.63
39.915	15914	0.50
39.920	16070	0.51
39.925	16638	0.52
39.930	14561	0.46
39.935	17757	0.56
39.940	16477	0.52
39.945	19253	0.61
39.950	19918	0.63
39.955	18241	0.57
39.960	17536	0.55
39.965	18283	0.57
39.970	17608	0.55
39.975	17540	0.55
39.980	16614	0.52
39.985	18215	0.57
39.990	16098	0.51
39.995	18873	0.59
40.000	19422	0.61
40.005	16089	0.51
40.010	20505	0.64
40.015	18083	0.57
40.020	16228	0.51
40.025	19585	0.62
40.030	16585	0.52
40.035	18160	0.57
40.040	18029	0.57
40.045	17523	0.55
40.050	17049	0.54
40.055	17104	0.54
40.060	20343	0.64
40.065	19853	0.62
40.070	14824	0.47
40.075	17809	0.56
40.080	18105	0.57
40.085	17023	0.53
40.090	19749	0.62
40.095	15458	0.49
40.100	18169	0.57
40.105	17189	0.54
40.110	17321	0.54
40.115	18606	0.58
40.120	17752	0.56
40.125	17930	0.56
40.130	17245	0.54
40.135	17142	0.54
40.140	18666	0.59
40.145	16595	0.52
40.150	19481	0.61
40.155	18321	0.58
40.160	17292	0.54
40.165	16479	0.52
40.170	19199	0.60
40.175	17249	0.54
40.180	20041	0.63
40.185	16409	0.52
40.190	17170	0.54
40.195	18265	0.57
40.200	17553	0.55
40.205	17713	0.56
40.210	20976	0.66
40.215	18032	0.57
40.220	16960	0.53
40.225	17355	0.55
40.230	14997	0.47
40.235	18647	0.59
40.240	16100	0.51
40.245	19292	0.61
40.250	18831	0.59
40.255	17458	0.55
40.260	16852	0.53
40.265	18228	0.57
40.270	16266	0.51
40.275	16357	0.51
40.280	14161	0.45
40.285	18087	0.57
40.290	14656	0.46
40.295	16367	0.51
40.300	17594	0.55
40.305	15732	0.49
40.310	17647	0.55
40.315	17335	0.54
40.320	19272	0.61
40.325	18022	0.57
40.330	16655	0.52
40.335	19113	0.60
40.340	15399	0.48
40.345	15414	0.48
40.350	16987	0.53
40.355	18261	0.57
40.360	17181	0.54
40.365	16206	0.51
40.370	18115	0.57
40.375	16888	0.53
40.380	13858	0.44
40.385	18252	0.57
40.390	18146	0.57
40.395	16855	0.53
40.400	17528	0.55
40.405	13991	0.44
40.410	16777	0.53
40.415	15602	0.49
40.420	15588	0.49
40.425	16419	0.52
40.430	17424	0.55
40.435	16125	0.51
40.440	17083	0.54
40.445	17191	0.54
40.450	16808	0.53
40.455	17270	0.54
40.460	16126	0.51
40.465	18340	0.58
40.470	17899	0.56
40.475	18232	0.57
40.480	14056	0.44
40.485	17916	0.56
40.490	16464	0.52
40.495	16608	0.52
40.500	17486	0.55
40.505	18015	0.57
40.510	16141	0.51
40.515	19508	0.61
40.520	16787	0.53
40.525	15305	0.48
40.530	17295	0.54
40.535	15231	0.48
40.540	15973	0.50
40.545	17516	0.55
40.550	15807	0.50
40.555	19201	0.60
40.560	16592	0.52
40.565	18304	0.58
40.570	16183	0.51
40.575	15640	0.49
40.580	16023	0.50
40.585	16965	0.53
40.590	18186	0.57
40.595	17931	0.56
40.600	18106	0.57
40.605	20260	0.64
40.610	18961	0.60
40.615	19069	0.60
40.620	18740	0.59
40.625	15236	0.48
40.630	17647	0.55
40.635	17140	0.54
40.640	18140	0.57
40.645	18075	0.57
40.650	14208	0.45
40.655	15209	0.48
40.660	17433	0.55
40.665	16947	0.53
40.670	17961	0.56
40.675	16016	0.50
40.680	17403	0.55
40.685	18698	0.59
40.690	16123	0.51
40.695	16704	0.52
40.700	15790	0.50
40.705	18523	0.58
40.710	17529	0.55
40.715	15438	0.49
40.720	16961	0.53
40.725	18681	0.59
40.730	14519	0.46
40.735	17485	0.55
40.740	17261	0.54
40.745	15766	0.50
40.750	15915	0.50
40.755	15367	0.48
40.760	18352	0.58
40.765	16333	0.51
40.770	19065	0.60
40.775	16557	0.52
40.780	19115	0.60
40.785	18584	0.58
40.790	18300	0.58
40.795	18540	0.58
40.800	16130	0.51
40.805	14816	0.47
40.810	19360	0.61
40.815	16396	0.52
40.820	16599	0.52
40.825	19355	0.61
40.830	18172	0.57
40.835	17081	0.54
40.840	17312	0.54
40.845	15917	0.50
40.850	17721	0.56
40.855	16987	0.53
40.860	15528	0.49
40.865	19481	0.61
40.870	16250	0.51
40.875	15049	0.47
40.880	16000	0.50
40.885	15378	0.48
40.890	15573	0.49
40.895	15242	0.48
40.900	18587	0.58
40.905	17306	0.54
40.910	17746	0.56
40.915	18569	0.58
40.920	17351	0.55
40.925	17851	0.56
40.930	18633	0.59
40.935	16873	0.53
40.940	17376	0.55
40.945	15565	0.49
40.950	17989	0.57
40.955	18625	0.59
40.960	16545	0.52
40.965	16696	0.52
40.970	17239	0.54
40.975	17295	0.54
40.980	16746	0.53
40.985	14451	0.45
40.990	18320	0.58
40.995	17737	0.56
41.000	14438	0.45
41.005	18918	0.59
41.010	16939	0.53
41.015	18752	0.59
41.020	19077	0.60
41.025	19027	0.60
41.030	18206	0.57
41.035	13755	0.43
41.040	17644	0.55
41.045	16226	0.51
41.050	16909	0.53
41.055	15439	0.49
41.060	14371	0.45
41.065	15246	0.48
41.070	16210	0.51
41.075	13813	0.43
41.080	14965	0.47
41.085	16895	0.53
41.090	18239	0.57
41.095	19056	0.60
41.100	14768	0.46
41.105	17712	0.56
41.110	14559	0.46
41.115	17405	0.55
41.120	18665	0.59
41.125	14622	0.46
41.130	16082	0.51
41.135	16440	0.52
41.140	17823	0.56
41.145	17510	0.55
41.150	16963	0.53
41.155	16363	0.51
41.160	15144	0.48
41.165	14693	0.46
41.170	17434	0.55
41.175	16381	0.51
41.180	16917	0.53
41.185	17287	0.54
41.190	16919	0.53
41.195	17553	0.55
41.200	17193	0.54
41.205	17208	0.54
41.210	15434	0.49
41.215	17410	0.55
41.220	17123	0.54
41.225	19199	0.60
41.230	17175	0.54
41.235	20384	0.64
41.240	16138	0.51
41.245	15749	0.49
41.250	17598	0.55
41.255	14162	0.45
41.260	16526	0.52
41.265	14715	0.46
41.270	15819	0.50
41.275	17011	0.53
41.280	18273	0.57
41.285	16824	0.53
41.290	16055	0.50
41.295	17349	0.55
41.300	16864	0.53
41.305	15320	0.48
41.310	16422	0.52
41.315	18986	0.60
41.320	16418	0.52
41.325	18471	0.58
41.330	17678	0.56
41.335	18099	0.57
41.340	18980	0.60
41.345	16710	0.53
41.350	18737	0.59
41.355	18420	0.58
41.360	18126	0.57
41.365	16076	0.51
41.370	16615	0.52
41.375	18401	0.58
41.380	15886	0.50
41.385	18908	0.59
41.390	16335	0.51
41.395	15006	0.47
41.400	17420	0.55
41.405	15716	0.49
41.410	19095	0.60
41.415	16564	0.52
41.420	17072	0.54
41.425	16158	0.51
41.430	16450	0.52
41.435	17353	0.55
41.440	16829	0.53
41.445	15400	0.48
41.450	18145	0.57
41.455	18171	0.57
41.460	16518	0.52
41.465	17376	0.55
41.470	14537	0.46
41.475	16726	0.53
41.480	14193	0.45
41.485	18431	0.58
41.490	17060	0.54
41.495	17778	0.56
41.500	14512	0.46
41.505	16273	0.51
41.510	14960	0.47
41.515	15250	0.48
41.520	15199	0.48
41.525	16673	0.52
41.530	17326	0.54
41.535	15418	0.48
41.540	17973	0.56
41.545	15863	0.50
41.550	14811	0.47
41.555	15266	0.48
41.560	14102	0.44
41.565	15663	0.49
41.570	15237	0.48
41.575	16808	0.53
41.580	18008	0.57
41.585	14115	0.44
41.590	16072	0.51
41.595	16413	0.52
41.600	14699	0.46
41.605	16723	0.53
41.610	16105	0.51
41.615	16685	0.52
41.620	18755	0.59
41.625	14923	0.47
41.630	16637	0.52
41.635	15854	0.50
41.640	15834	0.50
41.645	18111	0.57
41.650	19101	0.60
41.655	17216	0.54
41.660	17071	0.54
41.665	11960	0.38
41.670	16382	0.51
41.675	15906	0.50
41.680	18061	0.57
41.685	17236	0.54
41.690	14180	0.45
41.695	16756	0.53
41.700	16100	0.51
41.705	18254	0.57
41.710	17051	0.54
41.715	15337	0.48
41.720	16356	0.51
41.725	17144	0.54
41.730	14620	0.46
41.735	16599	0.52
41.740	16077	0.51
41.745	16920	0.53
41.750	14596	0.46
41.755	14399	0.45
41.760	17318	0.54
41.765	14711	0.46
41.770	16583	0.52
41.775	18287	0.57
41.780	15102	0.47
41.785	14695	0.46
41.790	14925	0.47
41.795	15287	0.48
41.800	15702	0.49
41.805	13487	0.42
41.810	17581	0.55
41.815	16570	0.52
41.820	16712	0.53
41.825	15400	0.48
41.830	15322	0.48
41.835	15687	0.49
41.840	15878	0.50
41.845	14309	0.45
41.850	16641	0.52
41.855	15577	0.49
41.860	14908	0.47
41.865	16309	0.51
41.870	14460	0.45
41.875	16236	0.51
41.880	17966	0.56
41.885	16378	0.51
41.890	18073	0.57
41.895	16057	0.50
41.900	15908	0.50
41.905	17226	0.54
41.910	15559	0.49
41.915	18216	0.57
41.920	17677	0.56
41.925	14971	0.47
41.930	15328	0.48
41.935	13673	0.43
41.940	15760	0.50
41.945	15754	0.50
41.950	17596	0.55
41.955	17306	0.54
41.960	16293	0.51
41.965	16776	0.53
41.970	14763	0.46
41.975	17649	0.55
41.980	15878	0.50
41.985	16416	0.52
41.990	14789	0.46
41.995	19203	0.60
42.000	14102	0.44
42.005	17062	0.54
42.010	13889	0.44
42.015	15082	0.47
42.020	16857	0.53
42.025	15228	0.48
42.030	15960	0.50
42.035	15657	0.49
42.040	16773	0.53
42.045	15957	0.50
42.050	12862	0.40
42.055	18888	0.59
42.060	16907	0.53
42.065	16459	0.52
42.070	15297	0.48
42.075	14874	0.47
42.080	16484	0.52
42.085	17236	0.54
42.090	15660	0.49
42.095	16117	0.51
42.100	15278	0.48
42.105	16832	0.53
42.110	16397	0.52
42.115	13665	0.43
42.120	14108	0.44
42.125	15790	0.50
42.130	16471	0.52
42.135	15330	0.48
42.140	14470	0.45
42.145	12247	0.38
42.150	16009	0.50
42.155	14595	0.46
42.160	16265	0.51
42.165	13319	0.42
42.170	15550	0.49
42.175	16421	0.52
42.180	14032	0.44
42.185	16764	0.53
42.190	14289	0.45
42.195	14895	0.47
42.200	15537	0.49
42.205	13908	0.44
42.210	16795	0.53
42.215	13817	0.43
42.220	15321	0.48
42.225	17272	0.54
42.230	12901	0.41
42.235	15402	0.48
42.240	17048	0.54
42.245	14071	0.44
42.250	17175	0.54
42.255	15464	0.49
42.260	17244	0.54
42.265	18940	0.60
42.270	16334	0.51
42.275	15336	0.48
42.280	13485	0.42
42.285	15164	0.48
42.290	17309	0.54
42.295	14396	0.45
42.300	16235	0.51
42.305	16402	0.52
42.310	19123	0.60
42.315	17657	0.55
42.320	10721	0.34
42.325	14458	0.45
42.330	13659	0.43
42.335	15826	0.50
42.340	16613	0.52
42.345	14962	0.47
42.350	15309	0.48
42.355	16746	0.53
42.360	16322	0.51
42.365	15107	0.47
42.370	13452	0.42
42.375	17131	0.54
42.380	17853	0.56
42.385	15980	0.50
42.390	16458	0.52
42.395	15886	0.50
42.400	14382	0.45
42.405	15693	0.49
42.410	14668	0.46
42.415	16226	0.51
42.420	14627	0.46
42.425	15569	0.49
42.430	15901	0.50
42.435	14797	0.47
42.440	15127	0.48
42.445	14826	0.47
42.450	15153	0.48
42.455	15086	0.47
42.460	17299	0.54
42.465	15083	0.47
42.470	17399	0.55
42.475	14721	0.46
42.480	14395	0.45
42.485	15988	0.50
42.490	17939	0.56
42.495	15931	0.50
42.500	16456	0.52
42.505	14635	0.46
42.510	16313	0.51
42.515	15902	0.50
42.520	15951	0.50
42.525	18546	0.58
42.530	15526	0.49
42.535	16588	0.52
42.540	13675	0.43
42.545	14966	0.47
42.550	14201	0.45
42.555	15662	0.49
42.560	15446	0.49
42.565	14663	0.46
42.570	15719	0.49
42.575	15861	0.50
42.580	15802	0.50
42.585	14720	0.46
42.590	14370	0.45
42.595	15332	0.48
42.600	15480	0.49
42.605	13332	0.42
42.610	16655	0.52
42.615	14777	0.46
42.620	14922	0.47
42.625	14133	0.44
42.630	13600	0.43
42.635	18351	0.58
42.640	16190	0.51
42.645	13124	0.41
42.650	15601	0.49
42.655	17333	0.54
42.660	14590	0.46
42.665	17869	0.56
42.670	15410	0.48
42.675	18395	0.58
42.680	13690	0.43
42.685	16651	0.52
42.690	16781	0.53
42.695	14607	0.46
42.700	15835	0.50
42.705	15682	0.49
42.710	15816	0.50
42.715	17016	0.53
42.720	14750	0.46
42.725	17222	0.54
42.730	17269	0.54
42.735	15917	0.50
42.740	14492	0.46
42.745	14094	0.44
42.750	15115	0.48
42.755	15731	0.49
42.760	15695	0.49
42.765	14868	0.47
42.770	16771	0.53
42.775	15207	0.48
42.780	16047	0.50
42.785	15325	0.48
42.790	16133	0.51
42.795	13279	0.42
42.800	14034	0.44
42.805	14724	0.46
42.810	12364	0.39
42.815	12917	0.41
42.820	15606	0.49
42.825	13674	0.43
42.830	15614	0.49
42.835	13544	0.43
42.840	12567	0.39
42.845	16175	0.51
42.850	12927	0.41
42.855	17365	0.55
42.860	14496	0.46
42.865	15549	0.49
42.870	16232	0.51
42.875	15575	0.49
42.880	16167	0.51
42.885	16318	0.51
42.890	14903	0.47
42.895	18200	0.57
42.900	14997	0.47
42.905	14090	0.44
42.910	15484	0.49
42.915	15068	0.47
42.920	15466	0.49
42.925	14777	0.46
42.930	16275	0.51
42.935	16044	0.50
42.940	13667	0.43
42.945	15065	0.47
42.950	15317	0.48
42.955	13045	0.41
42.960	14769	0.46
42.965	13540	0.43
42.970	18209	0.57
42.975	16929	0.53
42.980	15676	0.49
42.985	16838	0.53
42.990	15306	0.48
42.995	17249	0.54
43.000	15465	0.49
43.005	15980	0.50
43.010	15625	0.49
43.015	16814	0.53
43.020	11257	0.35
43.025	15108	0.47
43.030	15518	0.49
43.035	14748	0.46
43.040	16887	0.53
43.045	15312	0.48
43.050	15646	0.49
43.055	15719	0.49
43.060	15913	0.50
43.065	16643	0.52
43.070	14056	0.44
43.075	15967	0.50
43.080	15939	0.50
43.085	15839	0.50
43.090	16560	0.52
43.095	14441	0.45
43.100	17769	0.56
43.105	16051	0.50
43.110	15066	0.47
43.115	15671	0.49
43.120	15387	0.48
43.125	16430	0.52
43.130	14450	0.45
43.135	11819	0.37
43.140	17078	0.54
43.145	15329	0.48
43.150	14945	0.47
43.155	17639	0.55
43.160	16601	0.52
43.165	15955	0.50
43.170	16229	0.51
43.175	13501	0.42
43.180	15532	0.49
43.185	15473	0.49
43.190	14695	0.46
43.195	15405	0.48
43.200	14429	0.45
43.205	14743	0.46
43.210	13432	0.42
43.215	13023	0.41
43.220	14862	0.47
43.225	15506	0.49
43.230	14545	0.46
43.235	14562	0.46
43.240	13976	0.44
43.245	14615	0.46
43.250	12966	0.41
43.255	14524	0.46
43.260	15194	0.48
43.265	15198	0.48
43.270	15804	0.50
43.275	12284	0.39
43.280	16547	0.52
43.285	14788	0.46
43.290	13155	0.41
43.295	15512	0.49
43.300	14998	0.47
43.305	15525	0.49
43.310	13430	0.42
43.315	14936	0.47
43.320	14483	0.46
43.325	15617	0.49
43.330	18486	0.58
43.335	18178	0.57
43.340	15465	0.49
43.345	15478	0.49
43.350	13955	0.44
43.355	14291	0.45
43.360	15988	0.50
43.365	14522	0.46
43.370	15171	0.48
43.375	16609	0.52
43.380	14657	0.46
43.385	15565	0.49
43.390	15649	0.49
43.395	14750	0.46
43.400	16423	0.52
43.405	15988	0.50
43.410	14916	0.47
43.415	14896	0.47
43.420	16384	0.51
43.425	14064	0.44
43.430	14372	0.45
43.435	15885	0.50
43.440	15098	0.47
43.445	14318	0.45
43.450	15392	0.48
43.455	14484	0.46
43.460	14066	0.44
43.465	16022	0.50
43.470	14207	0.45
43.475	14934	0.47
43.480	15198	0.48
43.485	15390	0.48
43.490	16850	0.53
43.495	13749	0.43
43.500	13756	0.43
43.505	17955	0.56
43.510	15481	0.49
43.515	17138	0.54
43.520	17185	0.54
43.525	14769	0.46
43.530	15328	0.48
43.535	15801	0.50
43.540	13549	0.43
43.545	13260	0.42
43.550	15857	0.50
43.555	14843	0.47
43.560	12049	0.38
43.565	14393	0.45
43.570	13269	0.42
43.575	12526	0.39
43.580	13227	0.42
43.585	13768	0.43
43.590	12269	0.39
43.595	13926	0.44
43.600	15983	0.50
43.605	18258	0.57
43.610	15838	0.50
43.615	17443	0.55
43.620	17326	0.54
43.625	14126	0.44
43.630	15535	0.49
43.635	15053	0.47
43.640	14540	0.46
43.645	16931	0.53
43.650	14520	0.46
43.655	14189	0.45
43.660	15948	0.50
43.665	15181	0.48
43.670	17019	0.53
43.675	15331	0.48
43.680	14314	0.45
43.685	17654	0.55
43.690	15126	0.48
43.695	16442	0.52
43.700	13963	0.44
43.705	14968	0.47
43.710	15089	0.47
43.715	15674	0.49
43.720	17010	0.53
43.725	15442	0.49
43.730	13686	0.43
43.735	15188	0.48
43.740	15772	0.50
43.745	15142	0.48
43.750	14076	0.44
43.755	14740	0.46
43.760	15121	0.48
43.765	13744	0.43
43.770	16102	0.51
43.775	17786	0.56
43.780	13321	0.42
43.785	15065	0.47
43.790	14748	0.46
43.795	13638	0.43
43.800	17412	0.55
43.805	13509	0.42
43.810	14505	0.46
43.815	17562	0.55
43.820	14821	0.47
43.825	16863	0.53
43.830	16088	0.51
43.835	16543	0.52
43.840	15289	0.48
43.845	16122	0.51
43.850	16786	0.53
43.855	15010	0.47
43.860	13538	0.43
43.865	15986	0.50
43.870	12988	0.41
43.875	16457	0.52
43.880	14648	0.46
43.885	16162	0.51
43.890	14462	0.45
43.895	11895	0.37
43.900	14084	0.44
43.905	17223	0.54
43.910	15623	0.49
43.915	16227	0.51
43.920	14371	0.45
43.925	14847	0.47
43.930	15009	0.47
43.935	15688	0.49
43.940	16474	0.52
43.945	14183	0.45
43.950	17103	0.54
43.955	14859	0.47
43.960	14635	0.46
43.965	16619	0.52
43.970	14864	0.47
43.975	14017	0.44
43.980	16343	0.51
43.985	14920	0.47
43.990	17277	0.54
43.995	15885	0.50
44.000	14778	0.46
44.005	16099	0.51
44.010	15035	0.47
44.015	14932	0.47
44.020	12822	0.40
44.025	13335	0.42
44.030	16122	0.51
44.035	13737	0.43
44.040	15014	0.47
44.045	17477	0.55
44.050	14153	0.44
44.055	18840	0.59
44.060	16234	0.51
44.065	16821	0.53
44.070	16543	0.52
44.075	16461	0.52
44.080	14604	0.46
44.085	17428	0.55
44.090	15369	0.48
44.095	17113	0.54
44.100	16023	0.50
44.105	14260	0.45
44.110	16899	0.53
44.115	14242	0.45
44.120	15335	0.48
44.125	16828	0.53
44.130	14759	0.46
44.135	16548	0.52
44.140	13960	0.44
44.145	14246	0.45
44.150	15979	0.50
44.155	15244	0.48
44.160	17461	0.55
44.165	15529	0.49
44.170	16688	0.52
44.175	16333	0.51
44.180	14793	0.46
44.185	16805	0.53
44.190	13401	0.42
44.195	14191	0.45
44.200	16349	0.51
44.205	13379	0.42
44.210	15608	0.49
44.215	16256	0.51
44.220	16240	0.51
44.225	14869	0.47
44.230	12643	0.40
44.235	16119	0.51
44.240	17024	0.53
44.245	16674	0.52
44.250	14517	0.46
44.255	12169	0.38
44.260	18643	0.59
44.265	15783	0.50
44.270	15755	0.50
44.275	13646	0.43
44.280	15426	0.48
44.285	13809	0.43
44.290	16383	0.51
44.295	15490	0.49
44.300	15167	0.48
44.305	16793	0.53
44.310	13206	0.42
44.315	16163	0.51
44.320	15382	0.48
44.325	14844	0.47
44.330	17736	0.56
44.335	15702	0.49
44.340	16809	0.53
44.345	15193	0.48
44.350	14452	0.45
44.355	15235	0.48
44.360	13478	0.42
44.365	14070	0.44
44.370	15182	0.48
44.375	13420	0.42
44.380	16490	0.52
44.385	18128	0.57
44.390	15659	0.49
44.395	14902	0.47
44.400	14570	0.46
44.405	16717	0.53
44.410	12531	0.39
44.415	15644	0.49
44.420	16629	0.52
44.425	12562	0.39
44.430	15475	0.49
44.435	14474	0.45
44.440	13706	0.43
44.445	13114	0.41
44.450	16327	0.51
44.455	16887	0.53
44.460	16684	0.52
44.465	13874	0.44
44.470	13619	0.43
44.475	15620	0.49
44.480	14118	0.44
44.485	13394	0.42
44.490	15362	0.48
44.495	15177	0.48
44.500	16393	0.52
44.505	14264	0.45
44.510	15775	0.50
44.515	16803	0.53
44.520	15383	0.48
44.525	14514	0.46
44.530	13026	0.41
44.535	16090	0.51
44.540	15496	0.49
44.545	12367	0.39
44.550	14962	0.47
44.555	14545	0.46
44.560	16015	0.50
44.565	13110	0.41
44.570	14570	0.46
44.575	15411	0.48
44.580	14750	0.46
44.585	12516	0.39
44.590	16861	0.53
44.595	13021	0.41
44.600	13810	0.43
44.605	15483	0.49
44.610	14696	0.46
44.615	16356	0.51
44.620	14010	0.44
44.625	15293	0.48
44.630	15376	0.48
44.635	16191	0.51
44.640	17786	0.56
44.645	14925	0.47
44.650	16950	0.53
44.655	15905	0.50
44.660	13633	0.43
44.665	15715	0.49
44.670	13137	0.41
44.675	13611	0.43
44.680	16392	0.52
44.685	14266	0.45
44.690	15068	0.47
44.695	16105	0.51
44.700	14962	0.47
44.705	14642	0.46
44.710	15370	0.48
44.715	15146	0.48
44.720	13436	0.42
44.725	14824	0.47
44.730	14803	0.47
44.735	16288	0.51
44.740	15634	0.49
44.745	17824	0.56
44.750	16254	0.51
44.755	14105	0.44
44.760	15721	0.49
44.765	13483	0.42
44.770	15365	0.48
44.775	14398	0.45
44.780	15217	0.48
44.785	14851	0.47
44.790	15030	0.47
44.795	14432	0.45
44.800	15374	0.48
44.805	14594	0.46
44.810	15265	0.48
44.815	13109	0.41
44.820	15815	0.50
44.825	17612	0.55
44.830	16052	0.50
44.835	18286	0.57
44.840	14277	0.45
44.845	16278	0.51
44.850	14100	0.44
44.855	15604	0.49
44.860	17345	0.55
44.865	15517	0.49
44.870	14653	0.46
44.875	12231	0.38
44.880	14254	0.45
44.885	15474	0.49
44.890	16160	0.51
44.895	12717	0.40
44.900	14317	0.45
44.905	15469	0.49
44.910	14616	0.46
44.915	16397	0.52
44.920	13514	0.42
44.925	16125	0.51
44.930	13753	0.43
44.935	16403	0.52
44.940	15974	0.50
44.945	14902	0.47
44.950	17571	0.55
44.955	16066	0.50
44.960	14251	0.45
44.965	16624	0.52
44.970	13868	0.44
44.975	14493	0.46
44.980	14057	0.44
44.985	14047	0.44
44.990	15277	0.48
44.995	14612	0.46
45.000	11900	0.37
45.005	15393	0.48
45.010	13638	0.43
45.015	14275	0.45
45.020	15162	0.48
45.025	13712	0.43
45.030	14456	0.45
45.035	14543	0.46
45.040	17688	0.56
45.045	16046	0.50
45.050	15818	0.50
45.055	14305	0.45
45.060	13416	0.42
45.065	13815	0.43
45.070	17078	0.54
45.075	13788	0.43
45.080	13663	0.43
45.085	15153	0.48
45.090	14088	0.44
45.095	12632	0.40
45.100	12390	0.39
45.105	15949	0.50
45.110	18959	0.60
45.115	14947	0.47
45.120	16115	0.51
45.125	12237	0.38
45.130	14789	0.46
45.135	14710	0.46
45.140	12908	0.41
45.145	12927	0.41
45.150	14956	0.47
45.155	12467	0.39
45.160	16175	0.51
45.165	14933	0.47
45.170	16926	0.53
45.175	15362	0.48
45.180	12068	0.38
45.185	15756	0.50
45.190	12854	0.40
45.195	13636	0.43
45.200	15617	0.49
45.205	14671	0.46
45.210	17674	0.56
45.215	18034	0.57
45.220	15100	0.47
45.225	14718	0.46
45.230	13240	0.42
45.235	15638	0.49
45.240	15520	0.49
45.245	14037	0.44
45.250	15517	0.49
45.255	16950	0.53
45.260	14872	0.47
45.265	17624	0.55
45.270	16224	0.51
45.275	15336	0.48
45.280	16331	0.51
45.285	13549	0.43
45.290	14997	0.47
45.295	16891	0.53
45.300	12250	0.38
45.305	14653	0.46
45.310	14357	0.45
45.315	14118	0.44
45.320	14020	0.44
45.325	13604	0.43
45.330	14411	0.45
45.335	15245	0.48
45.340	16360	0.51
45.345	13967	0.44
45.350	12789	0.40
45.355	15779	0.50
45.360	12767	0.40
45.365	12151	0.38
45.370	14028	0.44
45.375	14069	0.44
45.380	13624	0.43
45.385	16003	0.50
45.390	14562	0.46
45.395	17265	0.54
45.400	12916	0.41
45.405	15621	0.49
45.410	14268	0.45
45.415	16098	0.51
45.420	16022	0.50
45.425	13196	0.41
45.430	15648	0.49
45.435	15674	0.49
45.440	12631	0.40
45.445	14385	0.45
45.450	14513	0.46
45.455	13788	0.43
45.460	16702	0.52
45.465	16335	0.51
45.470	17569	0.55
45.475	14163	0.45
45.480	17050	0.54
45.485	14757	0.46
45.490	16505	0.52
45.495	16698	0.52
45.500	16969	0.53
45.505	13046	0.41
45.510	15027	0.47
45.515	14661	0.46
45.520	13506	0.42
45.525	16409	0.52
45.530	12479	0.39
45.535	15316	0.48
45.540	16052	0.50
45.545	15598	0.49
45.550	13454	0.42
45.555	12763	0.40
45.560	14953	0.47
45.565	14460	0.45
45.570	13394	0.42
45.575	16391	0.52
45.580	13415	0.42
45.585	16975	0.53
45.590	13332	0.42
45.595	12731	0.40
45.600	17781	0.56
45.605	11553	0.36
45.610	15632	0.49
45.615	13181	0.41
45.620	14794	0.46
45.625	14993	0.47
45.630	15212	0.48
45.635	14909	0.47
45.640	14275	0.45
45.645	15018	0.47
45.650	14888	0.47
45.655	13290	0.42
45.660	15079	0.47
45.665	12962	0.41
45.670	11669	0.37
45.675	15197	0.48
45.680	13635	0.43
45.685	15389	0.48
45.690	15168	0.48
45.695	14781	0.46
45.700	17386	0.55
45.705	13893	0.44
45.710	15332	0.48
45.715	12857	0.40
45.720	13238	0.42
45.725	15234	0.48
45.730	13599	0.43
45.735	15506	0.49
45.740	14973	0.47
45.745	12066	0.38
45.750	17585	0.55
45.755	16113	0.51
45.760	14121	0.44
45.765	13541	0.43
45.770	14165	0.45
45.775	16645	0.52
45.780	14879	0.47
45.785	15278	0.48
45.790	12884	0.40
45.795	12751	0.40
45.800	12895	0.41
45.805	13713	0.43
45.810	12648	0.40
45.815	13811	0.43
45.820	14242	0.45
45.825	15126	0.48
45.830	16078	0.51
45.835	12120	0.38
45.840	15474	0.49
45.845	13682	0.43
45.850	16760	0.53
45.855	14646	0.46
45.860	14626	0.46
45.865	13914	0.44
45.870	16565	0.52
45.875	13146	0.41
45.880	15990	0.50
45.885	13885	0.44
45.890	13378	0.42
45.895	16573	0.52
45.900	13434	0.42
45.905	15148	0.48
45.910	15923	0.50
45.915	14366	0.45
45.920	15558	0.49
45.925	12488	0.39
45.930	13851	0.44
45.935	13553	0.43
45.940	12907	0.41
45.945	15430	0.48
45.950	11764	0.37
45.955	14342	0.45
45.960	15005	0.47
45.965	15495	0.49
45.970	16718	0.53
45.975	15581	0.49
45.980	14345	0.45
45.985	14891	0.47
45.990	13484	0.42
45.995	16436	0.52
46.000	15943	0.50
46.005	13078	0.41
46.010	16613	0.52
46.015	13083	0.41
46.020	16493	0.52
46.025	16677	0.52
46.030	14630	0.46
46.035	16158	0.51
46.040	15345	0.48
46.045	12438	0.39
46.050	15628	0.49
46.055	14055	0.44
46.060	15596	0.49
46.065	15228	0.48
46.070	14278	0.45
46.075	13689	0.43
46.080	15393	0.48
46.085	15297	0.48
46.090	13258	0.42
46.095	16581	0.52
46.100	15696	0.49
46.105	13206	0.42
46.110	14674	0.46
46.115	14990	0.47
46.120	13535	0.43
46.125	15267	0.48
46.130	13325	0.42
46.135	13604	0.43
46.140	15799	0.50
46.145	15521	0.49
46.150	16077	0.51
46.155	15959	0.50
46.160	14592	0.46
46.165	16412	0.52
46.170	16949	0.53
46.175	13142	0.41
46.180	15129	0.48
46.185	14263	0.45
46.190	15906	0.50
46.195	16659	0.52
46.200	13736	0.43
46.205	15374	0.48
46.210	14830	0.47
46.215	13078	0.41
46.220	17099	0.54
46.225	12847	0.40
46.230	15672	0.49
46.235	16418	0.52
46.240	16938	0.53
46.245	13645	0.43
46.250	15223	0.48
46.255	15336	0.48
46.260	14894	0.47
46.265	13735	0.43
46.270	17255	0.54
46.275	13678	0.43
46.280	14802	0.47
46.285	13007	0.41
46.290	12902	0.41
46.295	16600	0.52
46.300	16535	0.52
46.305	13205	0.41
46.310	14234	0.45
46.315	13853	0.44
46.320	14966	0.47
46.325	15785	0.50
46.330	13733	0.43
46.335	16877	0.53
46.340	14913	0.47
46.345	14436	0.45
46.350	17537	0.55
46.355	13753	0.43
46.360	17406	0.55
46.365	13416	0.42
46.370	15511	0.49
46.375	15087	0.47
46.380	13631	0.43
46.385	13877	0.44
46.390	15775	0.50
46.395	13730	0.43
46.400	14687	0.46
46.405	12830	0.40
46.410	15248	0.48
46.415	13650	0.43
46.420	11352	0.36
46.425	17340	0.54
46.430	14493	0.46
46.435	14148	0.44
46.440	17456	0.55
46.445	14293	0.45
46.450	13673	0.43
46.455	13767	0.43
46.460	14515	0.46
46.465	16984	0.53
46.470	15091	0.47
46.475	15448	0.49
46.480	16921	0.53
46.485	15654	0.49
46.490	17360	0.55
46.495	15523	0.49
46.500	12944	0.41
46.505	17832	0.56
46.510	14378	0.45
46.515	15767	0.50
46.520	16678	0.52
46.525	11641	0.37
46.530	16649	0.52
46.535	14200	0.45
46.540	12779	0.40
46.545	15220	0.48
46.550	12407	0.39
46.555	15431	0.48
46.560	14322	0.45
46.565	13026	0.41
46.570	15154	0.48
46.575	14119	0.44
46.580	15904	0.50
46.585	15074	0.47
46.590	15259	0.48
46.595	15504	0.49
46.600	13927	0.44
46.605	12337	0.39
46.610	14073	0.44
46.615	15679	0.49
46.620	14910	0.47
46.625	15470	0.49
46.630	13847	0.44
46.635	14949	0.47
46.640	15602	0.49
46.645	16440	0.52
46.650	13666	0.43
46.655	11920	0.37
46.660	15298	0.48
46.665	13720	0.43
46.670	13528	0.43
46.675	14157	0.44
46.680	15410	0.48
46.685	16057	0.50
46.690	15657	0.49
46.695	14553	0.46
46.700	15684	0.49
46.705	10901	0.34
46.710	15438	0.49
46.715	14456	0.45
46.720	14015	0.44
46.725	15728	0.49
46.730	12347	0.39
46.735	15099	0.47
46.740	13888	0.44
46.745	12632	0.40
46.750	14895	0.47
46.755	14748	0.46
46.760	14753	0.46
46.765	17234	0.54
46.770	13562	0.43
46.775	15093	0.47
46.780	15373	0.48
46.785	12957	0.41
46.790	14721	0.46
46.795	11444	0.36
46.800	16488	0.52
46.805	15104	0.47
46.810	11685	0.37
46.815	13300	0.42
46.820	14177	0.45
46.825	14692	0.46
46.830	14449	0.45
46.835	12894	0.41
46.840	17988	0.57
46.845	14019	0.44
46.850	13530	0.43
46.855	16323	0.51
46.860	15361	0.48
46.865	14392	0.45
46.870	12034	0.38
46.875	14104	0.44
46.880	16022	0.50
46.885	15956	0.50
46.890	14373	0.45
46.895	15970	0.50
46.900	12204	0.38
46.905	17051	0.54
46.910	15198	0.48
46.915	15646	0.49
46.920	13100	0.41
46.925	11629	0.37
46.930	15153	0.48
46.935	15739	0.49
46.940	13813	0.43
46.945	14315	0.45
46.950	11889	0.37
46.955	13813	0.43
46.960	14618	0.46
46.965	12951	0.41
46.970	15692	0.49
46.975	15849	0.50
46.980	14465	0.45
46.985	15824	0.50
46.990	14463	0.45
46.995	14544	0.46
47.000	13384	0.42
47.005	14953	0.47
47.010	14808	0.47
47.015	13242	0.42
47.020	16180	0.51
47.025	16222	0.51
47.030	14696	0.46
47.035	14284	0.45
47.040	16515	0.52
47.045	13631	0.43
47.050	16264	0.51
47.055	15438	0.49
47.060	13986	0.44
47.065	13433	0.42
47.070	14010	0.44
47.075	16559	0.52
47.080	14699	0.46
47.085	15688	0.49
47.090	14964	0.47
47.095	12375	0.39
47.100	17691	0.56
47.105	14097	0.44
47.110	15900	0.50
47.115	17514	0.55
47.120	13508	0.42
47.125	15053	0.47
47.130	16098	0.51
47.135	16510	0.52
47.140	15569	0.49
47.145	13800	0.43
47.150	16617	0.52
47.155	13960	0.44
47.160	14837	0.47
47.165	15882	0.50
47.170	13994	0.44
47.175	14622	0.46
47.180	14940	0.47
47.185	12455	0.39
47.190	14206	0.45
47.195	13995	0.44
47.200	13812	0.43
47.205	16234	0.51
47.210	13571	0.43
47.215	14391	0.45
47.220	14464	0.45
47.225	13970	0.44
47.230	14214	0.45
47.235	13682	0.43
47.240	15159	0.48
47.245	12151	0.38
47.250	15553	0.49
47.255	14605	0.46
47.260	13857	0.44
47.265	14276	0.45
47.270	15092	0.47
47.275	14909	0.47
47.280	16490	0.52
47.285	13647	0.43
47.290	14937	0.47
47.295	13859	0.44
47.300	13539	0.43
47.305	15527	0.49
47.310	16827	0.53
47.315	15907	0.50
47.320	14249	0.45
47.325	13272	0.42
47.330	17144	0.54
47.335	12317	0.39
47.340	14504	0.46
47.345	15831	0.50
47.350	13960	0.44
47.355	14998	0.47
47.360	13880	0.44
47.365	14191	0.45
47.370	16444	0.52
47.375	14908	0.47
47.380	15263	0.48
47.385	16003	0.50
47.390	12005	0.38
47.395	13756	0.43
47.400	11897	0.37
47.405	15478	0.49
47.410	15464	0.49
47.415	12938	0.41
47.420	14748	0.46
47.425	13359	0.42
47.430	15674	0.49
47.435	14239	0.45
47.440	14375	0.45
47.445	13792	0.43
47.450	15091	0.47
47.455	12775	0.40
47.460	14426	0.45
47.465	14118	0.44
47.470	17784	0.56
47.475	16416	0.52
47.480	13294	0.42
47.485	15410	0.48
47.490	12089	0.38
47.495	15844	0.50
47.500	15047	0.47
47.505	13652	0.43
47.510	14075	0.44
47.515	13369	0.42
47.520	12362	0.39
47.525	14354	0.45
47.530	12512	0.39
47.535	15386	0.48
47.540	14692	0.46
47.545	10728	0.34
47.550	13632	0.43
47.555	14393	0.45
47.560	13079	0.41
47.565	13166	0.41
47.570	15032	0.47
47.575	16109	0.51
47.580	12974	0.41
47.585	15553	0.49
47.590	16894	0.53
47.595	11667	0.37
47.600	16561	0.52
47.605	11556	0.36
47.610	12883	0.40
47.615	13663	0.43
47.620	13033	0.41
47.625	16521	0.52
47.630	15137	0.48
47.635	12530	0.39
47.640	14967	0.47
47.645	15676	0.49
47.650	14309	0.45
47.655	12664	0.40
47.660	14917	0.47
47.665	16386	0.51
47.670	11978	0.38
47.675	16046	0.50
47.680	15880	0.50
47.685	14077	0.44
47.690	15391	0.48
47.695	12917	0.41
47.700	13221	0.42
47.705	14399	0.45
47.710	12961	0.41
47.715	12491	0.39
47.720	16452	0.52
47.725	13023	0.41
47.730	15042	0.47
47.735	16112	0.51
47.740	14431	0.45
47.745	15568	0.49
47.750	14394	0.45
47.755	15825	0.50
47.760	15637	0.49
47.765	14328	0.45
47.770	15830	0.50
47.775	13987	0.44
47.780	13615	0.43
47.785	14402	0.45
47.790	13739	0.43
47.795	17234	0.54
47.800	14116	0.44
47.805	14051	0.44
47.810	13812	0.43
47.815	14691	0.46
47.820	15775	0.50
47.825	14054	0.44
47.830	13083	0.41
47.835	14362	0.45
47.840	14814	0.47
47.845	17581	0.55
47.850	14187	0.45
47.855	12628	0.40
47.860	15801	0.50
47.865	14402	0.45
47.870	14886	0.47
47.875	15423	0.48
47.880	11163	0.35
47.885	15409	0.48
47.890	14280	0.45
47.895	16465	0.52
47.900	16564	0.52
47.905	12878	0.40
47.910	16822	0.53
47.915	14404	0.45
47.920	13193	0.41
47.925	14994	0.47
47.930	12620	0.40
47.935	16551	0.52
47.940	13982	0.44
47.945	14825	0.47
47.950	14349	0.45
47.955	12895	0.41
47.960	14725	0.46
47.965	16098	0.51
47.970	14216	0.45
47.975	16099	0.51
47.980	14493	0.46
47.985	13368	0.42
47.990	14265	0.45
47.995	13258	0.42
48.000	16919	0.53
48.005	12068	0.38
48.010	15181	0.48
48.015	12353	0.39
48.020	14484	0.46
48.025	13280	0.42
48.030	14930	0.47
48.035	10757	0.34
48.040	15144	0.48
48.045	14136	0.44
48.050	13723	0.43
48.055	15668	0.49
48.060	14000	0.44
48.065	15521	0.49
48.070	14461	0.45
48.075	15239	0.48
48.080	14363	0.45
48.085	11181	0.35
48.090	15876	0.50
48.095	15743	0.49
48.100	15053	0.47
48.105	14916	0.47
48.110	13801	0.43
48.115	15674	0.49
48.120	13258	0.42
48.125	13806	0.43
48.130	14184	0.45
48.135	12819	0.40
48.140	12867	0.40
48.145	13584	0.43
48.150	14741	0.46
48.155	15339	0.48
48.160	13321	0.42
48.165	13147	0.41
48.170	14815	0.47
48.175	12986	0.41
48.180	16246	0.51
48.185	14098	0.44
48.190	12782	0.40
48.195	17371	0.55
48.200	15487	0.49
48.205	17048	0.54
48.210	14925	0.47
48.215	15101	0.47
48.220	14483	0.46
48.225	12182	0.38
48.230	14982	0.47
48.235	14105	0.44
48.240	15079	0.47
48.245	16134	0.51
48.250	14026	0.44
48.255	12127	0.38
48.260	13609	0.43
48.265	14488	0.46
48.270	14601	0.46
48.275	17182	0.54
48.280	13632	0.43
48.285	13376	0.42
48.290	13940	0.44
48.295	16007	0.50
48.300	13574	0.43
48.305	12243	0.38
48.310	14564	0.46
48.315	12392	0.39
48.320	16266	0.51
48.325	15631	0.49
48.330	15227	0.48
48.335	16320	0.51
48.340	13237	0.42
48.345	16478	0.52
48.350	16017	0.50
48.355	13354	0.42
48.360	15260	0.48
48.365	13261	0.42
48.370	15955	0.50
48.375	17150	0.54
48.380	15173	0.48
48.385	14585	0.46
48.390	13744	0.43
48.395	12191	0.38
48.400	17099	0.54
48.405	16830	0.53
48.410	14049	0.44
48.415	16505	0.52
48.420	12949	0.41
48.425	13160	0.41
48.430	15582	0.49
48.435	11752	0.37
48.440	14401	0.45
48.445	12693	0.40
48.450	14529	0.46
48.455	15897	0.50
48.460	12933	0.41
48.465	13447	0.42
48.470	13525	0.43
48.475	13757	0.43
48.480	17830	0.56
48.485	14010	0.44
48.490	16268	0.51
48.495	14060	0.44
48.500	11924	0.37
48.505	16867	0.53
48.510	16586	0.52
48.515	13202	0.41
48.520	15431	0.48
48.525	14229	0.45
48.530	13861	0.44
48.535	17478	0.55
48.540	13181	0.41
48.545	14372	0.45
48.550	13884	0.44
48.555	15903	0.50
48.560	17788	0.56
48.565	13478	0.42
48.570	14422	0.45
48.575	15716	0.49
48.580	12934	0.41
48.585	15108	0.47
48.590	13118	0.41
48.595	14523	0.46
48.600	13889	0.44
48.605	13238	0.42
48.610	16679	0.52
48.615	12573	0.40
48.620	13265	0.42
48.625	14029	0.44
48.630	14166	0.45
48.635	15132	0.48
48.640	14645	0.46
48.645	14911	0.47
48.650	14475	0.45
48.655	15311	0.48
48.660	15168	0.48
48.665	14027	0.44
48.670	12824	0.40
48.675	15249	0.48
48.680	11150	0.35
48.685	13869	0.44
48.690	13591	0.43
48.695	12591	0.40
48.700	15069	0.47
48.705	12328	0.39
48.710	16932	0.53
48.715	14774	0.46
48.720	13645	0.43
48.725	14461	0.45
48.730	13383	0.42
48.735	14383	0.45
48.740	12601	0.40
48.745	11536	0.36
48.750	13931	0.44
48.755	12836	0.40
48.760	17074	0.54
48.765	13440	0.42
48.770	11377	0.36
48.775	13759	0.43
48.780	14187	0.45
48.785	15521	0.49
48.790	14943	0.47
48.795	11688	0.37
48.800	15318	0.48
48.805	14728	0.46
48.810	11738	0.37
48.815	14195	0.45
48.820	12326	0.39
48.825	16032	0.50
48.830	15417	0.48

